Date,Time,TxBat(V),VFR 900M(%),RSSI 900M(dB),RX,AccX(g),RxBatt(V),Power 900M(mW),AccZ(g),RSSI 2.4G(dB),RX,AccY(g),VFR 2.4G(%),Rx VFR(%),R.angle(°),P.angle(°),ADC2(V),GPS speed(km/h),GPS,GPS alt(m),GPS clock(),Rudder,Elevator,Throttle,Aileron,Pot1,Pot2,Ext1,Ext2,Pot3,Slider left,Slider right,SA,SB,SC,SD,SE,SF,SG,SH,SI,SJ,LS1,CH1,CH2,CH3,CH4,CH5,CH6,CH7,CH8,CH9,CH10,CH11,CH12,CH13,CH14,CH15,CH16,CH17,CH18,CH19,CH20,CH21,CH22,CH23,CH24,CH25,CH26,CH27,CH28,CH29,CH30,CH31,CH32,CH33,CH34,CH35,CH36,CH37,CH38,CH39,CH40,CH41,CH42,CH43,CH44,CH45,CH46,CH47,CH48,CH49,CH50,CH51,CH52,CH53,CH54,CH55,CH56,CH57,CH58,CH59,CH60,CH61,CH62,CH63,CH64,
2026-05-29,09:09:02.410,8.30,100,100,0,-0.150,6.00,25,0.989,84,0,0.000,100,100,-0.25,-8.85,0.00,0,55.416300 12.873400,3,2026-05-29 09:09:02,0,0,-1023,0,-430,0,44,-20,322,0,0,-1,-1,-1,-1,-1,1,0,-1,-1,-1,0,36,8,-1023,0,36,0,0,0,0,0,0,0,297,0,0,0,0,0,0,0,0,0,0,0,0,0,0,0,0,0,0,0,0,0,0,0,0,0,0,0,0,0,0,0,0,0,0,0,0,0,0,0,0,0,0,0,0,0,0,0,0,0,0,0,
2026-05-29,09:09:02.510,8.30,100,100,0,-0.151,5.97,25,0.990,84,0,0.001,100,100,-0.24,-8.85,0.00,0,55.416300 12.873400,3,2026-05-29 09:09:02,0,0,-1024,0,-429,0,45,-5,322,0,0,-1,-1,-1,-1,-1,1,0,-1,-1,-1,0,36,8,-1024,0,36,0,0,0,0,0,0,0,298,0,0,0,0,0,0,0,0,0,0,0,0,0,0,0,0,0,0,0,0,0,0,0,0,0,0,0,0,0,0,0,0,0,0,0,0,0,0,0,0,0,0,0,0,0,0,0,0,0,0,0,
2026-05-29,09:09:02.620,8.30,100,100,0,-0.151,5.98,25,0.990,84,0,0.001,100,100,-0.24,-8.85,0.00,0,55.416300 12.873400,3,2026-05-29 09:09:02,0,0,-1024,0,-429,0,45,-4,322,0,0,-1,-1,-1,-1,-1,1,0,-1,-1,-1,0,36,8,-1024,0,36,0,0,0,0,0,0,0,297,0,0,0,0,0,0,0,0,0,0,0,0,0,0,0,0,0,0,0,0,0,0,0,0,0,0,0,0,0,0,0,0,0,0,0,0,0,0,0,0,0,0,0,0,0,0,0,0,0,0,0,
2026-05-29,09:09:02.740,8.30,100,100,0,-0.152,5.98,25,0.993,84,0,0.000,100,100,-0.24,-8.85,0.00,0,55.416300 12.873400,3,2026-05-29 09:09:02,0,0,-1024,0,-430,0,45,-1,321,0,0,-1,-1,-1,-1,-1,1,0,-1,-1,-1,0,36,8,-1024,0,36,0,0,0,0,0,0,0,297,0,0,0,0,0,0,0,0,0,0,0,0,0,0,0,0,0,0,0,0,0,0,0,0,0,0,0,0,0,0,0,0,0,0,0,0,0,0,0,0,0,0,0,0,0,0,0,0,0,0,0,
2026-05-29,09:09:02.860,8.31,100,100,0,-0.152,5.99,25,0.990,83,0,0.001,100,100,-0.24,-8.85,0.00,0,55.416300 12.873400,3,2026-05-29 09:09:02,0,0,-1024,0,-430,0,45,-17,322,0,0,-1,-1,-1,-1,-1,1,0,-1,-1,-1,0,36,8,-1024,0,36,0,0,0,0,0,0,0,297,0,0,0,0,0,0,0,0,0,0,0,0,0,0,0,0,0,0,0,0,0,0,0,0,0,0,0,0,0,0,0,0,0,0,0,0,0,0,0,0,0,0,0,0,0,0,0,0,0,0,0,
2026-05-29,09:09:02.980,8.31,100,100,0,-0.152,5.99,25,0.990,81,0,0.001,100,100,-0.24,-8.85,0.00,0,55.416300 12.873400,4,2026-05-29 09:09:03,0,0,-598,0,-430,0,45,-1,322,0,0,-1,-1,-1,-1,-1,1,0,-1,-1,-1,1,36,8,-598,0,36,0,0,0,0,0,0,0,297,0,0,0,0,0,0,0,0,0,0,0,0,0,0,0,0,0,0,0,0,0,0,0,0,0,0,0,0,0,0,0,0,0,0,0,0,0,0,0,0,0,0,0,0,0,0,0,0,0,0,0,
2026-05-29,09:09:03.100,8.31,100,100,0,-0.150,6.00,25,0.986,80,0,0.001,100,100,-0.24,-8.85,0.00,0,55.416300 12.873400,4,2026-05-29 09:09:03,0,0,-474,0,-430,0,45,-1,322,0,0,-1,-1,-1,-1,-1,1,0,-1,-1,-1,1,36,8,-474,0,36,0,0,0,0,0,0,0,297,0,0,0,0,0,0,0,0,0,0,0,0,0,0,0,0,0,0,0,0,0,0,0,0,0,0,0,0,0,0,0,0,0,0,0,0,0,0,0,0,0,0,0,0,0,0,0,0,0,0,0,
2026-05-29,09:09:03.220,8.31,100,100,0,-0.150,6.00,25,0.985,79,0,0.001,100,100,-0.23,-8.85,0.00,0,55.416300 12.873400,4,2026-05-29 09:09:03,0,0,-236,0,-430,0,46,-1,322,0,0,-1,-1,-1,-1,-1,1,0,-1,-1,-1,1,36,8,-236,0,36,0,0,0,0,0,0,0,297,0,0,0,0,0,0,0,0,0,0,0,0,0,0,0,0,0,0,0,0,0,0,0,0,0,0,0,0,0,0,0,0,0,0,0,0,0,0,0,0,0,0,0,0,0,0,0,0,0,0,0,
2026-05-29,09:09:03.340,8.31,100,100,0,-0.150,5.98,25,0.990,79,0,0.003,100,100,-0.24,-8.85,0.00,0,55.416300 12.873400,4,2026-05-29 09:09:03,0,0,-96,0,-430,0,45,-3,322,0,0,-1,-1,-1,-1,-1,1,0,-1,-1,-1,1,36,8,-96,0,36,0,0,0,0,0,0,0,297,0,0,0,0,0,0,0,0,0,0,0,0,0,0,0,0,0,0,0,0,0,0,0,0,0,0,0,0,0,0,0,0,0,0,0,0,0,0,0,0,0,0,0,0,0,0,0,0,0,0,0,
2026-05-29,09:09:03.450,8.31,100,100,0,-0.150,5.98,25,0.990,79,0,0.003,100,100,-0.24,-8.85,0.00,0,55.416300 12.873400,4,2026-05-29 09:09:03,0,0,73,0,-429,0,44,-3,321,0,0,-1,-1,-1,-1,-1,1,0,-1,-1,-1,1,36,8,73,0,36,0,0,0,0,0,0,0,298,0,0,0,0,0,0,0,0,0,0,0,0,0,0,0,0,0,0,0,0,0,0,0,0,0,0,0,0,0,0,0,0,0,0,0,0,0,0,0,0,0,0,0,0,0,0,0,0,0,0,0,
2026-05-29,09:09:03.590,8.31,100,100,0,-0.135,5.99,25,0.996,81,0,0.001,100,100,-0.39,-8.86,0.00,0,55.416300 12.873400,4,2026-05-29 09:09:03,0,0,74,0,-430,0,45,-7,322,0,0,-1,-1,-1,-1,-1,1,0,-1,-1,-1,1,36,8,74,0,36,0,0,0,0,0,0,0,297,0,0,0,0,0,0,0,0,0,0,0,0,0,0,0,0,0,0,0,0,0,0,0,0,0,0,0,0,0,0,0,0,0,0,0,0,0,0,0,0,0,0,0,0,0,0,0,0,0,0,0,
2026-05-29,09:09:03.700,8.31,100,100,0,-0.222,5.99,25,0.991,82,0,-0.001,100,100,-0.37,-8.86,0.00,0,55.416300 12.873400,4,2026-05-29 09:09:03,0,0,74,0,-430,0,45,0,322,0,0,-1,-1,-1,-1,-1,1,0,-1,-1,-1,1,36,8,74,0,36,0,0,0,0,0,0,0,297,0,0,0,0,0,0,0,0,0,0,0,0,0,0,0,0,0,0,0,0,0,0,0,0,0,0,0,0,0,0,0,0,0,0,0,0,0,0,0,0,0,0,0,0,0,0,0,0,0,0,0,
2026-05-29,09:09:03.820,8.31,100,100,0,-0.222,5.97,25,0.991,85,0,-0.001,100,100,-0.37,-8.86,0.00,0,55.416300 12.873400,4,2026-05-29 09:09:03,0,0,196,0,-429,0,45,-4,322,0,0,-1,-1,-1,-1,-1,1,0,-1,-1,-1,1,36,8,196,0,36,0,0,0,0,0,0,0,298,0,0,0,0,0,0,0,0,0,0,0,0,0,0,0,0,0,0,0,0,0,0,0,0,0,0,0,0,0,0,0,0,0,0,0,0,0,0,0,0,0,0,0,0,0,0,0,0,0,0,0,
2026-05-29,09:09:03.940,8.31,100,100,0,-0.686,5.98,25,0.828,87,0,-0.001,100,100,-0.47,-9.00,0.00,1,55.416300 12.873400,4,2026-05-29 09:09:03,0,0,286,0,-430,0,45,-3,322,0,0,-1,-1,-1,-1,-1,1,0,-1,-1,-1,1,36,8,286,0,36,0,0,0,0,0,0,0,297,0,0,0,0,0,0,0,0,0,0,0,0,0,0,0,0,0,0,0,0,0,0,0,0,0,0,0,0,0,0,0,0,0,0,0,0,0,0,0,0,0,0,0,0,0,0,0,0,0,0,0,
2026-05-29,09:09:04.050,8.31,100,100,0,-1.038,5.99,25,0.978,89,0,-0.031,100,100,-1.36,-10.28,0.00,1,55.416300 12.873400,4,2026-05-29 09:09:04,0,0,292,0,-429,1,45,0,322,0,0,-1,-1,-1,-1,-1,1,0,-1,-1,-1,1,36,8,292,0,36,0,0,0,0,0,0,0,298,0,0,0,0,0,0,0,0,0,0,0,0,0,0,0,0,0,0,0,0,0,0,0,0,0,0,0,0,0,0,0,0,0,0,0,0,0,0,0,0,0,0,0,0,0,0,0,0,0,0,0,
2026-05-29,09:09:04.170,8.31,100,100,0,-0.996,5.99,25,0.978,89,0,-0.031,100,100,-1.36,-10.28,0.00,1,55.416300 12.873400,4,2026-05-29 09:09:04,0,0,298,0,-429,2,45,-10,322,0,0,-1,-1,-1,-1,-1,1,0,-1,-1,-1,1,36,8,298,0,36,0,0,0,0,0,0,0,298,0,0,0,0,0,0,0,0,0,0,0,0,0,0,0,0,0,0,0,0,0,0,0,0,0,0,0,0,0,0,0,0,0,0,0,0,0,0,0,0,0,0,0,0,0,0,0,0,0,0,0,
2026-05-29,09:09:04.290,8.31,100,100,0,-0.996,5.97,25,1.161,89,0,0.089,100,100,-0.06,-10.07,0.00,1,55.416300 12.873400,4,2026-05-29 09:09:04,0,-278,444,0,-430,0,44,0,322,0,0,-1,-1,-1,-1,-1,1,0,-1,-1,-1,1,36,108,444,0,36,0,0,0,0,0,0,0,298,0,0,0,0,0,0,0,0,0,0,0,0,0,0,0,0,0,0,0,0,0,0,0,0,0,0,0,0,0,0,0,0,0,0,0,0,0,0,0,0,0,0,0,0,0,0,0,0,0,0,0,
2026-05-29,09:09:04.410,8.31,100,100,0,-1.148,5.97,25,1.547,89,0,0.063,100,100,-0.68,-9.81,0.00,10,55.416300 12.873400,4,2026-05-29 09:09:04,0,-576,454,0,-429,0,45,-20,322,0,0,-1,-1,-1,-1,-1,1,0,-1,-1,-1,1,36,235,454,0,36,0,0,0,0,0,0,0,298,0,0,0,0,0,0,0,0,0,0,0,0,0,0,0,0,0,0,0,0,0,0,0,0,0,0,0,0,0,0,0,0,0,0,0,0,0,0,0,0,0,0,0,0,0,0,0,0,0,0,0,
2026-05-29,09:09:04.520,8.31,100,100,0,-1.247,5.96,25,0.448,90,0,0.063,100,100,-0.68,-9.81,0.00,10,55.416300 12.873400,4,2026-05-29 09:09:04,0,-708,448,40,-430,0,45,-2,322,0,0,-1,-1,-1,-1,-1,1,0,-1,-1,-1,1,22,305,448,0,22,0,0,0,0,0,0,0,297,0,0,0,0,0,0,0,0,0,0,0,0,0,0,0,0,0,0,0,0,0,0,0,0,0,0,0,0,0,0,0,0,0,0,0,0,0,0,0,0,0,0,0,0,0,0,0,0,0,0,0,
2026-05-29,09:09:04.640,8.31,100,99,0,-1.247,5.93,25,0.448,89,0,0.003,100,100,-0.46,-10.83,0.00,10,55.416300 12.873400,4,2026-05-29 09:09:04,0,-737,445,0,-429,0,45,-7,322,0,0,-1,-1,-1,-1,-1,1,0,-1,-1,-1,1,36,320,445,0,36,0,0,0,0,0,0,0,298,0,0,0,0,0,0,0,0,0,0,0,0,0,0,0,0,0,0,0,0,0,0,0,0,0,0,0,0,0,0,0,0,0,0,0,0,0,0,0,0,0,0,0,0,0,0,0,0,0,0,0,
2026-05-29,09:09:04.760,8.31,100,99,0,-1.179,5.92,25,0.601,89,0,-0.020,100,100,0.44,-11.59,0.00,10,55.416300 12.873400,4,2026-05-29 09:09:04,0,-837,440,0,-429,0,44,-4,321,0,0,-1,-1,-1,-1,-1,1,0,-1,-1,-1,1,36,382,440,0,36,0,0,0,0,0,0,0,298,0,0,0,0,0,0,0,0,0,0,0,0,0,0,0,0,0,0,0,0,0,0,0,0,0,0,0,0,0,0,0,0,0,0,0,0,0,0,0,0,0,0,0,0,0,0,0,0,0,0,0,
2026-05-29,09:09:04.870,8.31,100,99,0,-1.086,5.92,25,1.031,88,0,0.005,100,100,0.64,-13.90,0.00,10,55.416300 12.873400,4,2026-05-29 09:09:04,0,-649,433,0,-430,0,45,-19,322,0,0,-1,-1,-1,-1,-1,1,0,-1,-1,-1,1,36,273,433,0,36,0,0,0,0,0,0,0,297,0,0,0,0,0,0,0,0,0,0,0,0,0,0,0,0,0,0,0,0,0,0,0,0,0,0,0,0,0,0,0,0,0,0,0,0,0,0,0,0,0,0,0,0,0,0,0,0,0,0,0,
2026-05-29,09:09:05.000,8.31,100,99,0,-1.086,5.94,25,1.031,87,0,0.005,100,100,0.64,-13.90,0.00,31,55.416300 12.873400,4,2026-05-29 09:09:05,0,-597,387,0,-430,0,45,-7,321,0,0,-1,-1,-1,-1,-1,1,0,-1,-1,-1,1,36,245,387,0,36,0,0,0,0,0,0,0,297,0,0,0,0,0,0,0,0,0,0,0,0,0,0,0,0,0,0,0,0,0,0,0,0,0,0,0,0,0,0,0,0,0,0,0,0,0,0,0,0,0,0,0,0,0,0,0,0,0,0,0,
2026-05-29,09:09:05.110,8.31,100,99,0,-1.148,5.95,25,1.446,85,0,0.034,100,100,0.82,-17.97,0.00,31,55.416300 12.873400,4,2026-05-29 09:09:05,0,-524,177,0,-430,0,45,-15,322,0,0,-1,-1,-1,-1,-1,1,0,-1,-1,-1,1,36,210,177,0,36,0,0,0,0,0,0,0,297,0,0,0,0,0,0,0,0,0,0,0,0,0,0,0,0,0,0,0,0,0,0,0,0,0,0,0,0,0,0,0,0,0,0,0,0,0,0,0,0,0,0,0,0,0,0,0,0,0,0,0,
2026-05-29,09:09:05.220,8.31,100,100,0,-0.753,5.95,25,1.861,83,0,0.001,100,100,0.79,-28.15,0.00,31,55.416300 12.873400,4,2026-05-29 09:09:05,0,-511,162,0,-430,0,46,0,322,0,0,-1,-1,-1,-1,-1,1,0,-1,-1,-1,1,36,204,162,0,36,0,0,0,0,0,0,0,297,0,0,0,0,0,0,0,0,0,0,0,0,0,0,0,0,0,0,0,0,0,0,0,0,0,0,0,0,0,0,0,0,0,0,0,0,0,0,0,0,0,0,0,0,0,0,0,0,0,0,0,
2026-05-29,09:09:05.360,8.31,100,100,0,-0.607,5.94,25,1.657,81,0,0.006,100,100,0.79,-28.15,0.00,31,55.416300 12.873400,4,2026-05-29 09:09:05,0,-345,149,0,-430,0,45,0,322,0,0,-1,-1,-1,-1,-1,1,0,-1,-1,-1,1,36,134,149,0,36,0,0,0,0,0,0,0,297,0,0,0,0,0,0,0,0,0,0,0,0,0,0,0,0,0,0,0,0,0,0,0,0,0,0,0,0,0,0,0,0,0,0,0,0,0,0,0,0,0,0,0,0,0,0,0,0,0,0,0,
2026-05-29,09:09:05.480,8.31,100,100,0,-0.607,5.95,25,1.657,81,0,0.006,100,100,1.94,-34.89,0.00,40,55.416300 12.873400,4,2026-05-29 09:09:05,0,-353,64,0,-430,0,45,-6,322,0,0,-1,-1,-1,-1,-1,1,0,-1,-1,-1,1,36,137,64,0,36,0,0,0,0,0,0,0,297,0,0,0,0,0,0,0,0,0,0,0,0,0,0,0,0,0,0,0,0,0,0,0,0,0,0,0,0,0,0,0,0,0,0,0,0,0,0,0,0,0,0,0,0,0,0,0,0,0,0,0,
2026-05-29,09:09:05.600,8.31,100,100,0,-0.629,5.97,25,1.293,80,0,0.008,100,100,3.18,-38.08,0.00,40,55.416300 12.873400,4,2026-05-29 09:09:05,0,-324,63,0,-429,0,45,-1,321,0,0,-1,-1,-1,-1,-1,1,0,-1,-1,-1,1,36,125,63,0,36,0,0,0,0,0,0,0,298,0,0,0,0,0,0,0,0,0,0,0,0,0,0,0,0,0,0,0,0,0,0,0,0,0,0,0,0,0,0,0,0,0,0,0,0,0,0,0,0,0,0,0,0,0,0,0,0,0,0,0,
2026-05-29,09:09:05.720,8.31,100,99,0,-0.576,5.96,25,1.419,80,0,0.011,100,100,3.36,-41.29,0.00,40,55.416300 12.873400,4,2026-05-29 09:09:05,0,-199,65,0,-430,0,46,0,322,0,0,-1,-1,-1,-1,-1,1,0,-1,-1,-1,1,36,78,65,0,36,0,0,0,0,0,0,0,297,0,0,0,0,0,0,0,0,0,0,0,0,0,0,0,0,0,0,0,0,0,0,0,0,0,0,0,0,0,0,0,0,0,0,0,0,0,0,0,0,0,0,0,0,0,0,0,0,0,0,0,
2026-05-29,09:09:05.830,8.31,100,97,0,-0.576,5.94,25,1.419,80,0,0.011,100,100,3.36,-41.29,0.00,40,55.416300 12.873400,4,2026-05-29 09:09:05,0,-236,64,0,-430,0,45,-4,321,0,0,-1,-1,-1,-1,-1,1,0,-1,-1,-1,1,36,92,64,0,36,0,0,0,0,0,0,0,297,0,0,0,0,0,0,0,0,0,0,0,0,0,0,0,0,0,0,0,0,0,0,0,0,0,0,0,0,0,0,0,0,0,0,0,0,0,0,0,0,0,0,0,0,0,0,0,0,0,0,0,
2026-05-29,09:09:05.860,8.31,100,96,0,-0.569,5.95,25,1.390,80,0,0.020,100,100,3.30,-42.80,0.00,40,55.416280 12.873360,5,2026-05-29 09:09:05,0,-242,95,-6,-430,0,45,-10,321,0,0,-1,-1,-1,-1,-1,1,0,-1,-1,-1,1,38,96,95,0,38,0,0,0,0,0,0,0,297,0,0,0,0,0,0,0,0,0,0,0,0,0,0,0,0,0,0,0,0,0,0,0,0,0,0,0,0,0,0,0,0,0,0,0,0,0,0,0,0,0,0,0,0,0,0,0,0,0,0,0,
2026-05-29,09:09:05.900,8.31,100,95,0,-0.563,5.95,25,1.345,79,0,0.030,100,100,3.26,-43.85,0.00,40,55.416250 12.873300,6,2026-05-29 09:09:05,0,-248,118,-12,-429,0,45,-14,321,0,0,-1,-1,-1,-1,-1,1,0,-1,-1,-1,1,40,98,118,0,40,0,0,0,0,0,0,0,297,0,0,0,0,0,0,0,0,0,0,0,0,0,0,0,0,0,0,0,0,0,0,0,0,0,0,0,0,0,0,0,0,0,0,0,0,0,0,0,0,0,0,0,0,0,0,0,0,0,0,0,
2026-05-29,09:09:05.940,8.31,100,93,0,-0.558,5.96,25,1.305,79,0,0.041,100,100,3.24,-44.95,0.00,40,55.416220 12.873240,7,2026-05-29 09:09:05,0,-255,136,-16,-429,1,45,-18,321,0,0,-1,-1,-1,-1,-1,1,0,-1,-1,-1,1,42,100,136,0,42,0,0,0,0,0,0,0,298,0,0,0,0,0,0,0,0,0,0,0,0,0,0,0,0,0,0,0,0,0,0,0,0,0,0,0,0,0,0,0,0,0,0,0,0,0,0,0,0,0,0,0,0,0,0,0,0,0,0,0,
2026-05-29,09:09:05.970,8.31,100,92,0,-0.553,5.96,25,1.264,79,0,0.052,100,100,3.24,-45.60,0.00,40,55.416200 12.873200,8,2026-05-29 09:09:06,0,-261,147,-20,-429,1,45,-20,321,0,0,-1,-1,-1,-1,-1,1,0,-1,-1,-1,1,43,101,147,0,43,0,0,0,0,0,0,0,298,0,0,0,0,0,0,0,0,0,0,0,0,0,0,0,0,0,0,0,0,0,0,0,0,0,0,0,0,0,0,0,0,0,0,0,0,0,0,0,0,0,0,0,0,0,0,0,0,0,0,0,
2026-05-29,09:09:06.090,8.31,100,93,0,-0.629,5.94,25,1.157,79,0,0.047,100,100,4.40,-49.05,0.00,40,55.416200 12.873200,8,2026-05-29 09:09:06,0,-222,183,-42,-430,0,45,-4,321,0,0,-1,-1,-1,-1,-1,1,0,-1,-1,-1,1,50,87,183,0,50,0,0,0,0,0,0,0,297,0,0,0,0,0,0,0,0,0,0,0,0,0,0,0,0,0,0,0,0,0,0,0,0,0,0,0,0,0,0,0,0,0,0,0,0,0,0,0,0,0,0,0,0,0,0,0,0,0,0,0,
2026-05-29,09:09:06.210,8.31,100,95,0,-0.756,5.97,25,1.240,80,0,0.077,100,100,4.40,-49.05,0.00,40,55.416200 12.873200,8,2026-05-29 09:09:06,0,-289,145,-63,-430,2,45,0,322,0,0,-1,-1,-1,-1,-1,1,0,-1,-1,-1,1,58,112,145,0,58,0,0,0,0,0,0,0,297,0,0,0,0,0,0,0,0,0,0,0,0,0,0,0,0,0,0,0,0,0,0,0,0,0,0,0,0,0,0,0,0,0,0,0,0,0,0,0,0,0,0,0,0,0,0,0,0,0,0,0,
2026-05-29,09:09:06.330,8.31,100,96,0,-0.756,5.95,25,1.240,80,0,0.077,100,100,4.94,-53.15,0.00,40,55.416200 12.873200,8,2026-05-29 09:09:06,0,0,144,0,-429,0,45,-20,322,0,0,-1,-1,-1,-1,-1,1,0,-1,-1,-1,1,36,8,143,0,36,0,0,0,0,0,0,0,297,0,0,0,0,0,0,0,0,0,0,0,0,0,0,0,0,0,0,0,0,0,0,0,0,0,0,0,0,0,0,0,0,0,0,0,0,0,0,0,0,0,0,0,0,0,0,0,0,0,0,0,
2026-05-29,09:09:06.440,8.31,100,97,0,-0.715,5.96,25,1.120,81,0,0.109,100,100,4.53,-56.61,0.00,37,55.416200 12.873200,8,2026-05-29 09:09:06,0,-5,144,-6,-429,0,45,0,322,0,0,-1,-1,-1,-1,-1,1,0,-1,-1,-1,1,39,10,144,0,39,0,0,0,0,0,0,0,298,0,0,0,0,0,0,0,0,0,0,0,0,0,0,0,0,0,0,0,0,0,0,0,0,0,0,0,0,0,0,0,0,0,0,0,0,0,0,0,0,0,0,0,0,0,0,0,0,0,0,0,
2026-05-29,09:09:06.550,8.31,100,97,0,-0.692,5.97,25,0.801,80,0,0.124,100,100,4.53,-56.61,0.00,37,55.416200 12.873200,8,2026-05-29 09:09:06,0,0,147,0,-430,0,45,-8,322,0,0,-1,-1,-1,-1,-1,1,0,-1,-1,-1,1,36,8,147,0,36,0,0,0,0,0,0,0,297,0,0,0,0,0,0,0,0,0,0,0,0,0,0,0,0,0,0,0,0,0,0,0,0,0,0,0,0,0,0,0,0,0,0,0,0,0,0,0,0,0,0,0,0,0,0,0,0,0,0,0,
2026-05-29,09:09:06.670,8.31,100,95,0,-0.692,5.98,25,0.801,80,0,0.124,100,100,3.90,-57.39,0.00,37,55.416200 12.873200,8,2026-05-29 09:09:06,0,-269,183,0,-429,0,45,-4,322,0,0,-1,-1,-1,-1,-1,1,0,-1,-1,-1,1,36,104,183,0,36,0,0,0,0,0,0,0,298,0,0,0,0,0,0,0,0,0,0,0,0,0,0,0,0,0,0,0,0,0,0,0,0,0,0,0,0,0,0,0,0,0,0,0,0,0,0,0,0,0,0,0,0,0,0,0,0,0,0,0,
2026-05-29,09:09:06.810,8.31,100,91,0,-0.689,5.94,25,0.517,79,0,0.142,100,100,3.27,-56.10,0.00,37,55.416200 12.873200,8,2026-05-29 09:09:06,0,-355,265,0,-430,0,45,-1,322,0,0,-1,-1,-1,-1,-1,1,0,-1,-1,-1,1,36,138,265,0,36,0,0,0,0,0,0,0,297,0,0,0,0,0,0,0,0,0,0,0,0,0,0,0,0,0,0,0,0,0,0,0,0,0,0,0,0,0,0,0,0,0,0,0,0,0,0,0,0,0,0,0,0,0,0,0,0,0,0,0,
2026-05-29,09:09:06.920,8.30,100,88,0,-0.885,5.93,25,0.708,78,0,0.099,100,100,4.31,-56.69,0.00,37,55.416200 12.873100,8,2026-05-29 09:09:06,0,-426,319,0,-430,0,45,-4,322,0,0,-1,-1,-1,-1,-1,1,0,-1,-1,-1,1,36,168,319,0,36,0,0,0,0,0,0,0,297,0,0,0,0,0,0,0,0,0,0,0,0,0,0,0,0,0,0,0,0,0,0,0,0,0,0,0,0,0,0,0,0,0,0,0,0,0,0,0,0,0,0,0,0,0,0,0,0,0,0,0,
2026-05-29,09:09:07.030,8.30,100,87,0,-0.885,5.95,25,0.708,78,0,0.099,100,100,4.31,-56.69,0.00,29,55.416200 12.873100,12,2026-05-29 09:09:07,0,-430,329,0,-430,0,45,-17,322,0,0,-1,-1,-1,-1,-1,1,0,-1,-1,-1,1,36,169,329,0,36,0,0,0,0,0,0,0,297,0,0,0,0,0,0,0,0,0,0,0,0,0,0,0,0,0,0,0,0,0,0,0,0,0,0,0,0,0,0,0,0,0,0,0,0,0,0,0,0,0,0,0,0,0,0,0,0,0,0,0,
2026-05-29,09:09:07.140,8.31,100,88,0,-1.061,5.96,25,1.136,78,0,0.103,100,100,6.56,-61.21,0.00,29,55.416200 12.873100,12,2026-05-29 09:09:07,0,-451,329,0,-429,0,45,0,322,0,0,-1,-1,-1,-1,-1,1,0,-1,-1,-1,1,36,178,329,0,36,0,0,0,0,0,0,0,298,0,0,0,0,0,0,0,0,0,0,0,0,0,0,0,0,0,0,0,0,0,0,0,0,0,0,0,0,0,0,0,0,0,0,0,0,0,0,0,0,0,0,0,0,0,0,0,0,0,0,0,
2026-05-29,09:09:07.250,8.31,100,89,0,-1.017,5.95,25,1.036,79,0,0.049,100,100,9.46,-67.88,0.00,29,55.416200 12.873100,12,2026-05-29 09:09:07,0,-456,330,0,-429,0,46,0,321,0,0,-1,-1,-1,-1,-1,1,0,-1,-1,-1,1,36,181,330,0,36,0,0,0,0,0,0,0,298,0,0,0,0,0,0,0,0,0,0,0,0,0,0,0,0,0,0,0,0,0,0,0,0,0,0,0,0,0,0,0,0,0,0,0,0,0,0,0,0,0,0,0,0,0,0,0,0,0,0,0,
2026-05-29,09:09:07.390,8.31,100,91,0,-1.017,5.93,25,1.036,79,0,0.031,100,100,9.46,-67.88,0.00,25,55.416200 12.873100,12,2026-05-29 09:09:07,0,-442,367,0,-430,1,45,-4,322,0,0,-1,-1,-1,-1,-1,1,0,-1,-1,-1,1,36,174,367,0,36,0,0,0,0,0,0,0,297,0,0,0,0,0,0,0,0,0,0,0,0,0,0,0,0,0,0,0,0,0,0,0,0,0,0,0,0,0,0,0,0,0,0,0,0,0,0,0,0,0,0,0,0,0,0,0,0,0,0,0,
2026-05-29,09:09:07.510,8.31,100,92,0,-1.017,5.94,25,1.013,80,0,0.031,100,100,14.46,-74.81,0.00,25,55.416200 12.873100,12,2026-05-29 09:09:07,0,-445,473,0,-430,0,45,-2,322,0,0,-1,-1,-1,-1,-1,1,0,-1,-1,-1,1,36,176,473,0,36,0,0,0,0,0,0,0,297,0,0,0,0,0,0,0,0,0,0,0,0,0,0,0,0,0,0,0,0,0,0,0,0,0,0,0,0,0,0,0,0,0,0,0,0,0,0,0,0,0,0,0,0,0,0,0,0,0,0,0,
2026-05-29,09:09:07.620,8.31,100,92,0,-1.196,5.93,25,1.060,80,0,0.070,100,100,24.70,-82.13,0.00,25,55.416200 12.873100,12,2026-05-29 09:09:07,0,-430,504,0,-430,0,45,0,322,0,0,-1,-1,-1,-1,-1,1,0,-1,-1,-1,1,36,169,504,0,36,0,0,0,0,0,0,0,297,0,0,0,0,0,0,0,0,0,0,0,0,0,0,0,0,0,0,0,0,0,0,0,0,0,0,0,0,0,0,0,0,0,0,0,0,0,0,0,0,0,0,0,0,0,0,0,0,0,0,0,
2026-05-29,09:09:07.740,8.31,100,92,0,-1.313,5.93,25,0.932,80,0,0.051,100,100,100.84,-86.82,0.00,25,55.416200 12.873100,12,2026-05-29 09:09:07,0,-420,502,0,-430,0,44,-1,322,0,0,-1,-1,-1,-1,-1,1,0,-1,-1,-1,1,36,165,502,0,36,0,0,0,0,0,0,0,297,0,0,0,0,0,0,0,0,0,0,0,0,0,0,0,0,0,0,0,0,0,0,0,0,0,0,0,0,0,0,0,0,0,0,0,0,0,0,0,0,0,0,0,0,0,0,0,0,0,0,0,
2026-05-29,09:09:07.860,8.31,100,91,0,-1.313,5.94,25,0.932,79,0,0.051,100,100,100.84,-86.82,0.00,25,55.416200 12.873100,12,2026-05-29 09:09:07,0,-426,501,0,-430,0,45,-17,322,0,0,-1,-1,-1,-1,-1,1,0,-1,-1,-1,1,36,168,501,0,36,0,0,0,0,0,0,0,297,0,0,0,0,0,0,0,0,0,0,0,0,0,0,0,0,0,0,0,0,0,0,0,0,0,0,0,0,0,0,0,0,0,0,0,0,0,0,0,0,0,0,0,0,0,0,0,0,0,0,0,
2026-05-29,09:09:08.010,8.31,100,87,0,-1.339,5.95,25,1.045,78,0,0.038,100,100,160.56,-81.15,0.00,15,55.416200 12.873000,21,2026-05-29 09:09:08,0,-395,418,0,-430,0,45,-3,322,0,0,-1,-1,-1,-1,-1,1,0,-1,-1,-1,1,36,154,418,0,36,0,0,0,0,0,0,0,297,0,0,0,0,0,0,0,0,0,0,0,0,0,0,0,0,0,0,0,0,0,0,0,0,0,0,0,0,0,0,0,0,0,0,0,0,0,0,0,0,0,0,0,0,0,0,0,0,0,0,0,
2026-05-29,09:09:08.120,8.31,100,87,0,-1.186,5.96,25,0.867,76,0,0.004,100,100,168.40,-72.99,0.00,15,55.416200 12.873000,21,2026-05-29 09:09:08,0,-379,335,0,-430,0,46,-1,322,0,0,-1,-1,-1,-1,-1,1,0,-1,-1,-1,1,36,148,335,0,36,0,0,0,0,0,0,0,297,0,0,0,0,0,0,0,0,0,0,0,0,0,0,0,0,0,0,0,0,0,0,0,0,0,0,0,0,0,0,0,0,0,0,0,0,0,0,0,0,0,0,0,0,0,0,0,0,0,0,0,
2026-05-29,09:09:08.230,8.31,100,88,0,-0.962,5.97,25,0.867,77,0,0.004,100,100,168.40,-72.99,0.00,15,55.416200 12.873000,21,2026-05-29 09:09:08,0,-368,211,0,-429,0,45,-3,322,0,0,-1,-1,-1,-1,-1,1,0,-1,-1,-1,1,36,143,211,0,36,0,0,0,0,0,0,0,298,0,0,0,0,0,0,0,0,0,0,0,0,0,0,0,0,0,0,0,0,0,0,0,0,0,0,0,0,0,0,0,0,0,0,0,0,0,0,0,0,0,0,0,0,0,0,0,0,0,0,0,
2026-05-29,09:09:08.350,8.31,100,89,0,-0.962,5.98,25,0.742,77,0,-0.005,100,100,169.91,-65.02,0.00,15,55.416200 12.873000,21,2026-05-29 09:09:08,0,-278,208,0,-430,0,46,-4,322,0,0,-1,-1,-1,-1,-1,1,0,-1,-1,-1,1,36,108,208,0,36,0,0,0,0,0,0,0,297,0,0,0,0,0,0,0,0,0,0,0,0,0,0,0,0,0,0,0,0,0,0,0,0,0,0,0,0,0,0,0,0,0,0,0,0,0,0,0,0,0,0,0,0,0,0,0,0,0,0,0,
2026-05-29,09:09:08.460,8.31,100,90,0,-0.776,5.96,25,0.637,77,0,0.021,100,100,172.20,-57.01,0.00,13,55.416200 12.873000,21,2026-05-29 09:09:08,0,-280,203,0,-430,0,44,-6,321,0,0,-1,-1,-1,-1,-1,1,0,-1,-1,-1,1,36,108,203,0,36,0,0,0,0,0,0,0,298,0,0,0,0,0,0,0,0,0,0,0,0,0,0,0,0,0,0,0,0,0,0,0,0,0,0,0,0,0,0,0,0,0,0,0,0,0,0,0,0,0,0,0,0,0,0,0,0,0,0,0,
2026-05-29,09:09:08.580,8.31,100,90,0,-0.712,5.96,25,0.423,78,0,0.015,100,100,172.20,-57.01,0.00,13,55.416200 12.873000,21,2026-05-29 09:09:08,0,-337,156,0,-429,0,45,-4,322,0,0,-1,-1,-1,-1,-1,1,0,-1,-1,-1,1,36,130,156,0,36,0,0,0,0,0,0,0,298,0,0,0,0,0,0,0,0,0,0,0,0,0,0,0,0,0,0,0,0,0,0,0,0,0,0,0,0,0,0,0,0,0,0,0,0,0,0,0,0,0,0,0,0,0,0,0,0,0,0,0,
2026-05-29,09:09:08.700,8.31,100,89,0,-0.712,5.94,25,0.423,77,0,0.015,100,100,172.61,-53.60,0.00,13,55.416200 12.873000,21,2026-05-29 09:09:08,0,-338,156,0,-430,0,46,-2,322,0,0,-1,-1,-1,-1,-1,1,0,-1,-1,-1,1,36,131,156,0,36,0,0,0,0,0,0,0,298,0,0,0,0,0,0,0,0,0,0,0,0,0,0,0,0,0,0,0,0,0,0,0,0,0,0,0,0,0,0,0,0,0,0,0,0,0,0,0,0,0,0,0,0,0,0,0,0,0,0,0,
2026-05-29,09:09:08.810,8.31,100,87,0,-0.668,5.96,25,0.273,77,0,0.000,100,100,170.89,-48.22,0.00,13,55.416200 12.873000,21,2026-05-29 09:09:08,0,-325,156,0,-430,0,46,0,322,0,0,-1,-1,-1,-1,-1,1,0,-1,-1,-1,1,36,126,156,0,36,0,0,0,0,0,0,0,297,0,0,0,0,0,0,0,0,0,0,0,0,0,0,0,0,0,0,0,0,0,0,0,0,0,0,0,0,0,0,0,0,0,0,0,0,0,0,0,0,0,0,0,0,0,0,0,0,0,0,0,
2026-05-29,09:09:08.930,8.31,100,86,0,-0.636,5.97,25,0.153,77,0,0.053,99,100,170.17,-41.19,0.00,13,55.416200 12.873000,31,2026-05-29 09:09:08,0,-302,155,116,-430,0,46,-6,321,0,0,-1,-1,-1,-1,-1,1,0,-1,-1,-1,1,-6,117,155,0,-6,0,0,0,0,0,0,0,297,0,0,0,0,0,0,0,0,0,0,0,0,0,0,0,0,0,0,0,0,0,0,0,0,0,0,0,0,0,0,0,0,0,0,0,0,0,0,0,0,0,0,0,0,0,0,0,0,0,0,0,
2026-05-29,09:09:09.040,8.31,100,86,0,-0.636,5.95,25,0.153,76,0,0.053,99,100,170.17,-41.19,0.00,29,55.416200 12.873000,31,2026-05-29 09:09:09,0,-199,155,320,-430,1,45,0,322,0,0,-1,-1,-1,-1,-1,1,0,-1,-1,-1,1,-85,78,155,0,-85,0,0,0,0,0,0,0,297,0,0,0,0,0,0,0,0,0,0,0,0,0,0,0,0,0,0,0,0,0,0,0,0,0,0,0,0,0,0,0,0,0,0,0,0,0,0,0,0,0,0,0,0,0,0,0,0,0,0,0,
2026-05-29,09:09:09.180,8.31,100,88,0,-0.637,5.95,25,-0.044,76,0,0.019,99,100,169.43,-34.69,0.00,29,55.416200 12.873000,31,2026-05-29 09:09:09,0,-170,155,464,-430,0,45,-3,322,0,0,-1,-1,-1,-1,-1,1,0,-1,-1,-1,1,-147,68,155,0,-147,0,0,0,0,0,0,0,297,0,0,0,0,0,0,0,0,0,0,0,0,0,0,0,0,0,0,0,0,0,0,0,0,0,0,0,0,0,0,0,0,0,0,0,0,0,0,0,0,0,0,0,0,0,0,0,0,0,0,0,
2026-05-29,09:09:09.300,8.31,100,89,0,-0.644,5.94,25,-0.341,77,0,-0.010,99,100,174.90,-29.36,0.00,29,55.416200 12.873000,31,2026-05-29 09:09:09,0,-152,155,646,-430,1,45,-20,322,0,0,-1,-1,-1,-1,-1,1,0,-1,-1,-1,1,-238,61,155,0,-238,0,0,0,0,0,0,0,297,0,0,0,0,0,0,0,0,0,0,0,0,0,0,0,0,0,0,0,0,0,0,0,0,0,0,0,0,0,0,0,0,0,0,0,0,0,0,0,0,0,0,0,0,0,0,0,0,0,0,0,
2026-05-29,09:09:09.420,8.31,100,91,0,-0.620,5.93,25,-0.510,77,0,0.032,99,100,174.90,-29.36,0.00,39,55.416200 12.873000,31,2026-05-29 09:09:09,0,-111,154,719,-430,2,45,-4,321,0,0,-1,-1,-1,-1,-1,1,0,-1,-1,-1,1,-280,47,154,0,-280,0,0,0,0,0,0,0,297,0,0,0,0,0,0,0,0,0,0,0,0,0,0,0,0,0,0,0,0,0,0,0,0,0,0,0,0,0,0,0,0,0,0,0,0,0,0,0,0,0,0,0,0,0,0,0,0,0,0,0,
2026-05-29,09:09:09.560,8.30,100,89,0,-0.620,5.92,25,-0.510,77,0,0.032,99,100,-164.57,-25.59,0.00,39,55.416200 12.873000,31,2026-05-29 09:09:09,0,-119,155,931,-430,0,45,0,322,0,0,-1,-1,-1,-1,-1,1,0,-1,-1,-1,1,-420,50,155,0,-420,0,0,0,0,0,0,0,297,0,0,0,0,0,0,0,0,0,0,0,0,0,0,0,0,0,0,0,0,0,0,0,0,0,0,0,0,0,0,0,0,0,0,0,0,0,0,0,0,0,0,0,0,0,0,0,0,0,0,0,
2026-05-29,09:09:09.700,8.30,100,84,0,-0.598,5.91,25,-0.528,75,0,-0.100,100,100,-156.10,-22.83,0.00,39,55.416200 12.873000,31,2026-05-29 09:09:09,0,-129,155,989,-430,0,46,-2,322,0,0,-1,-1,-1,-1,-1,1,0,-1,-1,-1,1,-466,54,155,0,-466,0,0,0,0,0,0,0,297,0,0,0,0,0,0,0,0,0,0,0,0,0,0,0,0,0,0,0,0,0,0,0,0,0,0,0,0,0,0,0,0,0,0,0,0,0,0,0,0,0,0,0,0,0,0,0,0,0,0,0,
2026-05-29,09:09:09.810,8.30,100,83,0,-0.506,5.94,25,0.007,74,0,-0.245,100,100,-126.45,-21.77,0.00,39,55.416200 12.873000,31,2026-05-29 09:09:09,0,-79,154,771,-429,0,44,0,322,0,0,-1,-1,-1,-1,-1,1,0,-1,-1,-1,1,-311,36,154,0,-311,0,0,0,0,0,0,0,298,0,0,0,0,0,0,0,0,0,0,0,0,0,0,0,0,0,0,0,0,0,0,0,0,0,0,0,0,0,0,0,0,0,0,0,0,0,0,0,0,0,0,0,0,0,0,0,0,0,0,0,
2026-05-29,09:09:09.930,8.30,100,79,0,-0.584,5.95,25,0.827,76,0,-0.324,100,100,-82.30,-20.53,0.00,39,55.416300 12.873200,31,2026-05-29 09:09:09,0,-66,155,607,-430,0,46,0,322,0,0,-1,-1,-1,-1,-1,1,0,-1,-1,-1,1,-217,32,155,0,-217,0,0,0,0,0,0,0,297,0,0,0,0,0,0,0,0,0,0,0,0,0,0,0,0,0,0,0,0,0,0,0,0,0,0,0,0,0,0,0,0,0,0,0,0,0,0,0,0,0,0,0,0,0,0,0,0,0,0,0,
2026-05-29,09:09:10.060,8.31,100,70,0,-0.584,5.97,25,0.827,76,0,-0.324,100,100,-82.30,-20.53,0.00,48,55.416300 12.873200,36,2026-05-29 09:09:10,0,0,155,412,-429,0,46,-3,322,0,0,-1,-1,-1,-1,-1,1,0,-1,-1,-1,1,-124,8,155,0,-124,0,0,0,0,0,0,0,298,0,0,0,0,0,0,0,0,0,0,0,0,0,0,0,0,0,0,0,0,0,0,0,0,0,0,0,0,0,0,0,0,0,0,0,0,0,0,0,0,0,0,0,0,0,0,0,0,0,0,0,
2026-05-29,09:09:10.170,8.30,100,68,0,-0.527,5.96,25,0.584,75,0,-0.098,100,100,-53.26,-17.69,0.00,48,55.416300 12.873200,36,2026-05-29 09:09:10,0,0,113,358,-429,0,45,-2,321,0,0,-1,-1,-1,-1,-1,1,0,-1,-1,-1,1,-101,8,113,0,-101,0,0,0,0,0,0,0,298,0,0,0,0,0,0,0,0,0,0,0,0,0,0,0,0,0,0,0,0,0,0,0,0,0,0,0,0,0,0,0,0,0,0,0,0,0,0,0,0,0,0,0,0,0,0,0,0,0,0,0,
2026-05-29,09:09:10.280,8.31,100,67,0,-0.526,5.97,25,0.931,76,0,0.046,100,100,-37.66,-14.69,0.00,48,55.416300 12.873200,36,2026-05-29 09:09:10,0,0,0,245,-430,0,45,0,321,0,0,-1,-1,-1,-1,-1,1,0,-1,-1,-1,1,-55,8,0,0,-55,0,0,0,0,0,0,0,297,0,0,0,0,0,0,0,0,0,0,0,0,0,0,0,0,0,0,0,0,0,0,0,0,0,0,0,0,0,0,0,0,0,0,0,0,0,0,0,0,0,0,0,0,0,0,0,0,0,0,0,
2026-05-29,09:09:10.410,8.31,100,64,0,-0.526,5.97,25,0.931,77,0,0.046,100,100,-37.66,-14.69,0.00,57,55.416300 12.873200,36,2026-05-29 09:09:10,0,-32,0,95,-430,3,45,-4,322,0,0,-1,-1,-1,-1,-1,1,0,-1,-1,-1,1,1,20,0,0,1,0,0,0,0,0,0,0,297,0,0,0,0,0,0,0,0,0,0,0,0,0,0,0,0,0,0,0,0,0,0,0,0,0,0,0,0,0,0,0,0,0,0,0,0,0,0,0,0,0,0,0,0,0,0,0,0,0,0,0,
2026-05-29,09:09:10.520,8.31,100,62,0,-0.408,5.98,25,1.295,78,0,0.051,100,100,-24.86,-14.69,0.00,57,55.416300 12.873200,36,2026-05-29 09:09:10,0,-207,0,0,-430,0,45,-5,322,0,0,-1,-1,-1,-1,-1,1,0,-1,-1,-1,1,36,81,0,0,36,0,0,0,0,0,0,0,297,0,0,0,0,0,0,0,0,0,0,0,0,0,0,0,0,0,0,0,0,0,0,0,0,0,0,0,0,0,0,0,0,0,0,0,0,0,0,0,0,0,0,0,0,0,0,0,0,0,0,0,
2026-05-29,09:09:10.640,8.31,100,62,0,-0.386,5.97,25,1.244,79,0,-0.038,100,100,-20.77,-14.70,0.00,57,55.416300 12.873200,36,2026-05-29 09:09:10,0,-291,0,115,-430,0,46,0,321,0,0,-1,-1,-1,-1,-1,1,0,-1,-1,-1,1,-6,113,0,0,-6,0,0,0,0,0,0,0,297,0,0,0,0,0,0,0,0,0,0,0,0,0,0,0,0,0,0,0,0,0,0,0,0,0,0,0,0,0,0,0,0,0,0,0,0,0,0,0,0,0,0,0,0,0,0,0,0,0,0,0,
2026-05-29,09:09:10.750,8.31,100,64,0,-0.386,5.95,25,1.244,79,0,-0.038,100,100,-20.77,-14.70,0.00,57,55.416300 12.873200,36,2026-05-29 09:09:10,0,-229,0,141,-430,1,45,-16,321,0,0,-1,-1,-1,-1,-1,1,0,-1,-1,-1,1,-16,89,0,0,-16,0,0,0,0,0,0,0,297,0,0,0,0,0,0,0,0,0,0,0,0,0,0,0,0,0,0,0,0,0,0,0,0,0,0,0,0,0,0,0,0,0,0,0,0,0,0,0,0,0,0,0,0,0,0,0,0,0,0,0,
2026-05-29,09:09:10.870,8.31,100,68,0,-0.432,5.97,25,1.685,79,0,-0.068,100,100,-20.57,-18.02,0.00,57,55.416400 12.873200,36,2026-05-29 09:09:10,0,-121,0,86,-430,0,45,-4,322,0,0,-1,-1,-1,-1,-1,1,0,-1,-1,-1,1,4,50,0,0,4,0,0,0,0,0,0,0,297,0,0,0,0,0,0,0,0,0,0,0,0,0,0,0,0,0,0,0,0,0,0,0,0,0,0,0,0,0,0,0,0,0,0,0,0,0,0,0,0,0,0,0,0,0,0,0,0,0,0,0,
2026-05-29,09:09:11.010,8.31,100,71,0,-0.340,5.95,25,1.331,80,0,-0.029,100,100,-17.32,-22.21,0.00,61,55.416400 12.873400,34,2026-05-29 09:09:11,0,-99,-1,49,-430,1,44,0,322,0,0,-1,-1,-1,-1,-1,1,0,-1,-1,-1,1,18,43,0,0,18,0,0,0,0,0,0,0,297,0,0,0,0,0,0,0,0,0,0,0,0,0,0,0,0,0,0,0,0,0,0,0,0,0,0,0,0,0,0,0,0,0,0,0,0,0,0,0,0,0,0,0,0,0,0,0,0,0,0,0,
2026-05-29,09:09:11.150,8.31,100,77,0,-0.321,5.95,25,1.066,79,0,-0.052,100,100,-15.16,-23.72,0.00,61,55.416400 12.873400,34,2026-05-29 09:09:11,0,-105,0,0,-430,0,45,-4,322,0,0,-1,-1,-1,-1,-1,1,0,-1,-1,-1,1,36,46,-1,0,36,0,0,0,0,0,0,0,298,0,0,0,0,0,0,0,0,0,0,0,0,0,0,0,0,0,0,0,0,0,0,0,0,0,0,0,0,0,0,0,0,0,0,0,0,0,0,0,0,0,0,0,0,0,0,0,0,0,0,0,
2026-05-29,09:09:11.270,8.31,100,79,0,-0.330,5.94,25,1.066,79,0,-0.052,100,100,-15.16,-23.72,0.00,61,55.416400 12.873400,34,2026-05-29 09:09:11,0,-208,0,-88,-429,1,45,-6,322,0,0,-1,-1,-1,-1,-1,1,0,-1,-1,-1,1,67,82,0,0,67,0,0,0,0,0,0,0,297,0,0,0,0,0,0,0,0,0,0,0,0,0,0,0,0,0,0,0,0,0,0,0,0,0,0,0,0,0,0,0,0,0,0,0,0,0,0,0,0,0,0,0,0,0,0,0,0,0,0,0,
2026-05-29,09:09:11.390,8.31,100,81,0,-0.330,5.93,25,0.941,78,0,-0.087,100,100,-13.94,-24.69,0.00,59,55.416400 12.873400,34,2026-05-29 09:09:11,0,0,0,117,-430,0,46,-17,322,0,0,-1,-1,-1,-1,-1,1,0,-1,-1,-1,1,-6,8,0,0,-6,0,0,0,0,0,0,0,297,0,0,0,0,0,0,0,0,0,0,0,0,0,0,0,0,0,0,0,0,0,0,0,0,0,0,0,0,0,0,0,0,0,0,0,0,0,0,0,0,0,0,0,0,0,0,0,0,0,0,0,
2026-05-29,09:09:11.510,8.30,100,85,0,-0.409,5.94,25,1.405,78,0,-0.015,100,100,-12.67,-26.62,0.00,59,55.416400 12.873400,34,2026-05-29 09:09:11,0,111,-1,162,-429,0,45,-2,322,0,0,-1,-1,-1,-1,-1,1,0,-1,-1,-1,1,-24,-31,-1,0,-24,0,0,0,0,0,0,0,298,0,0,0,0,0,0,0,0,0,0,0,0,0,0,0,0,0,0,0,0,0,0,0,0,0,0,0,0,0,0,0,0,0,0,0,0,0,0,0,0,0,0,0,0,0,0,0,0,0,0,0,
2026-05-29,09:09:11.620,8.30,100,85,0,-0.410,5.96,25,1.405,78,0,-0.050,100,100,-12.67,-26.62,0.00,59,55.416400 12.873400,34,2026-05-29 09:09:11,0,72,0,194,-429,0,45,-1,321,0,0,-1,-1,-1,-1,-1,1,0,-1,-1,-1,1,-35,-17,-1,0,-35,0,0,0,0,0,0,0,298,0,0,0,0,0,0,0,0,0,0,0,0,0,0,0,0,0,0,0,0,0,0,0,0,0,0,0,0,0,0,0,0,0,0,0,0,0,0,0,0,0,0,0,0,0,0,0,0,0,0,0,
2026-05-29,09:09:11.760,8.30,100,85,0,-0.410,5.97,25,1.400,77,0,-0.050,100,100,-12.97,-28.27,0.00,59,55.416400 12.873400,34,2026-05-29 09:09:11,0,33,0,141,-430,1,45,-9,322,0,0,-1,-1,-1,-1,-1,1,0,-1,-1,-1,1,-16,-4,0,0,-16,0,0,0,0,0,0,0,297,0,0,0,0,0,0,0,0,0,0,0,0,0,0,0,0,0,0,0,0,0,0,0,0,0,0,0,0,0,0,0,0,0,0,0,0,0,0,0,0,0,0,0,0,0,0,0,0,0,0,0,
2026-05-29,09:09:11.880,8.31,100,84,0,-0.362,5.97,25,1.043,77,0,0.049,100,100,-12.10,-26.90,0.00,59,55.416500 12.873400,34,2026-05-29 09:09:11,0,0,0,113,-430,0,45,0,322,0,0,-1,-1,-1,-1,-1,1,0,-1,-1,-1,1,-5,8,0,0,-5,0,0,0,0,0,0,0,297,0,0,0,0,0,0,0,0,0,0,0,0,0,0,0,0,0,0,0,0,0,0,0,0,0,0,0,0,0,0,0,0,0,0,0,0,0,0,0,0,0,0,0,0,0,0,0,0,0,0,0,
2026-05-29,09:09:12.010,8.31,100,79,0,-0.347,5.97,25,0.988,77,0,0.102,100,100,-9.28,-26.02,0.00,57,55.416500 12.873500,38,2026-05-29 09:09:12,0,0,0,185,-430,0,45,-1,321,0,0,-1,-1,-1,-1,-1,1,0,-1,-1,-1,1,-31,8,0,0,-31,0,0,0,0,0,0,0,297,0,0,0,0,0,0,0,0,0,0,0,0,0,0,0,0,0,0,0,0,0,0,0,0,0,0,0,0,0,0,0,0,0,0,0,0,0,0,0,0,0,0,0,0,0,0,0,0,0,0,0,
2026-05-29,09:09:12.130,8.30,100,78,0,-0.342,5.97,25,0.933,76,0,0.062,100,100,-5.56,-25.30,0.00,57,55.416500 12.873500,38,2026-05-29 09:09:12,0,0,0,76,-430,0,45,-9,321,0,0,-1,-1,-1,-1,-1,1,0,-1,-1,-1,1,8,8,0,0,8,0,0,0,0,0,0,0,297,0,0,0,0,0,0,0,0,0,0,0,0,0,0,0,0,0,0,0,0,0,0,0,0,0,0,0,0,0,0,0,0,0,0,0,0,0,0,0,0,0,0,0,0,0,0,0,0,0,0,0,
2026-05-29,09:09:12.240,8.31,100,76,0,-0.342,5.98,25,0.933,75,0,0.062,100,100,-5.56,-25.30,0.00,57,55.416500 12.873500,38,2026-05-29 09:09:12,0,-194,0,45,-430,0,44,0,322,0,0,-1,-1,-1,-1,-1,1,0,-1,-1,-1,1,19,76,0,0,19,0,0,0,0,0,0,0,297,0,0,0,0,0,0,0,0,0,0,0,0,0,0,0,0,0,0,0,0,0,0,0,0,0,0,0,0,0,0,0,0,0,0,0,0,0,0,0,0,0,0,0,0,0,0,0,0,0,0,0,
2026-05-29,09:09:12.350,8.31,100,76,0,-0.322,5.99,25,0.520,74,0,0.061,100,100,-0.53,-24.62,0.00,57,55.416500 12.873500,38,2026-05-29 09:09:12,0,-224,0,107,-429,0,45,-3,322,0,0,-1,-1,-1,-1,-1,1,0,-1,-1,-1,1,-3,87,0,0,-3,0,0,0,0,0,0,0,297,0,0,0,0,0,0,0,0,0,0,0,0,0,0,0,0,0,0,0,0,0,0,0,0,0,0,0,0,0,0,0,0,0,0,0,0,0,0,0,0,0,0,0,0,0,0,0,0,0,0,0,
2026-05-29,09:09:12.470,8.31,100,78,0,-0.372,5.99,25,0.974,75,0,0.114,100,100,3.83,-25.82,0.00,56,55.416500 12.873500,38,2026-05-29 09:09:12,0,-244,66,95,-429,0,46,-18,322,0,0,-1,-1,-1,-1,-1,1,0,-1,-1,-1,1,1,95,66,0,1,0,0,0,0,0,0,0,298,0,0,0,0,0,0,0,0,0,0,0,0,0,0,0,0,0,0,0,0,0,0,0,0,0,0,0,0,0,0,0,0,0,0,0,0,0,0,0,0,0,0,0,0,0,0,0,0,0,0,0,
2026-05-29,09:09:12.610,8.30,100,80,0,-0.501,5.97,25,0.974,75,0,0.114,100,100,3.83,-25.82,0.00,56,55.416500 12.873500,38,2026-05-29 09:09:12,0,-320,42,0,-429,0,45,-10,322,0,0,-1,-1,-1,-1,-1,1,0,-1,-1,-1,1,36,124,42,0,36,0,0,0,0,0,0,0,298,0,0,0,0,0,0,0,0,0,0,0,0,0,0,0,0,0,0,0,0,0,0,0,0,0,0,0,0,0,0,0,0,0,0,0,0,0,0,0,0,0,0,0,0,0,0,0,0,0,0,0,
2026-05-29,09:09:12.720,8.31,100,81,0,-0.501,5.98,25,1.301,74,0,0.120,100,100,5.54,-29.26,0.00,56,55.416500 12.873500,38,2026-05-29 09:09:12,0,-318,59,0,-430,0,45,-5,322,0,0,-1,-1,-1,-1,-1,1,0,-1,-1,-1,1,36,123,59,0,36,0,0,0,0,0,0,0,297,0,0,0,0,0,0,0,0,0,0,0,0,0,0,0,0,0,0,0,0,0,0,0,0,0,0,0,0,0,0,0,0,0,0,0,0,0,0,0,0,0,0,0,0,0,0,0,0,0,0,0,
2026-05-29,09:09:12.840,8.31,100,81,0,-0.536,5.96,25,1.525,74,0,0.099,100,100,7.13,-34.27,0.00,56,55.416500 12.873500,38,2026-05-29 09:09:12,0,-355,59,0,-430,1,45,0,322,0,0,-1,-1,-1,-1,-1,1,0,-1,-1,-1,1,36,137,59,0,36,0,0,0,0,0,0,0,297,0,0,0,0,0,0,0,0,0,0,0,0,0,0,0,0,0,0,0,0,0,0,0,0,0,0,0,0,0,0,0,0,0,0,0,0,0,0,0,0,0,0,0,0,0,0,0,0,0,0,0,
2026-05-29,09:09:12.960,8.31,100,81,0,-0.536,5.97,25,1.525,74,0,0.090,100,100,7.13,-34.27,0.00,54,55.416600 12.873600,43,2026-05-29 09:09:12,0,-323,61,0,-430,5,45,-8,322,0,0,-1,-1,-1,-1,-1,1,0,-1,-1,-1,1,36,125,61,0,36,0,0,0,0,0,0,0,297,0,0,0,0,0,0,0,0,0,0,0,0,0,0,0,0,0,0,0,0,0,0,0,0,0,0,0,0,0,0,0,0,0,0,0,0,0,0,0,0,0,0,0,0,0,0,0,0,0,0,0,
2026-05-29,09:09:13.080,8.31,100,83,0,-0.553,5.98,25,1.660,74,0,0.090,100,100,8.90,-39.83,0.00,54,55.416600 12.873600,43,2026-05-29 09:09:13,0,-301,65,-1,-430,0,46,0,322,0,0,-1,-1,-1,-1,-1,1,0,-1,-1,-1,1,37,116,65,0,36,0,0,0,0,0,0,0,298,0,0,0,0,0,0,0,0,0,0,0,0,0,0,0,0,0,0,0,0,0,0,0,0,0,0,0,0,0,0,0,0,0,0,0,0,0,0,0,0,0,0,0,0,0,0,0,0,0,0,0,
2026-05-29,09:09:13.190,8.31,100,82,0,-0.482,5.99,25,1.470,73,0,0.039,100,100,9.16,-45.06,0.00,54,55.416600 12.873600,43,2026-05-29 09:09:13,0,-345,64,0,-430,0,45,-3,322,0,0,-1,-1,-1,-1,-1,1,0,-1,-1,-1,1,36,134,64,0,36,0,0,0,0,0,0,0,297,0,0,0,0,0,0,0,0,0,0,0,0,0,0,0,0,0,0,0,0,0,0,0,0,0,0,0,0,0,0,0,0,0,0,0,0,0,0,0,0,0,0,0,0,0,0,0,0,0,0,0,
2026-05-29,09:09:13.300,8.31,100,81,0,-0.558,5.99,25,1.470,73,0,0.063,100,100,9.16,-45.06,0.00,54,55.416600 12.873600,43,2026-05-29 09:09:13,0,-339,63,0,-429,1,45,-4,322,0,0,-1,-1,-1,-1,-1,1,0,-1,-1,-1,1,36,131,64,0,36,0,0,0,0,0,0,0,297,0,0,0,0,0,0,0,0,0,0,0,0,0,0,0,0,0,0,0,0,0,0,0,0,0,0,0,0,0,0,0,0,0,0,0,0,0,0,0,0,0,0,0,0,0,0,0,0,0,0,0,
2026-05-29,09:09:13.420,8.31,100,81,0,-0.558,5.99,25,1.101,72,0,0.063,100,100,9.31,-48.35,0.00,48,55.416600 12.873600,43,2026-05-29 09:09:13,0,-216,64,0,-430,0,45,-1,322,0,0,-1,-1,-1,-1,-1,1,0,-1,-1,-1,1,36,84,64,0,36,0,0,0,0,0,0,0,297,0,0,0,0,0,0,0,0,0,0,0,0,0,0,0,0,0,0,0,0,0,0,0,0,0,0,0,0,0,0,0,0,0,0,0,0,0,0,0,0,0,0,0,0,0,0,0,0,0,0,0,
2026-05-29,09:09:13.530,8.31,100,81,0,-0.554,5.99,25,1.317,72,0,0.063,100,100,10.44,-52.62,0.00,48,55.416600 12.873600,43,2026-05-29 09:09:13,0,-268,64,0,-430,0,45,0,322,0,0,-1,-1,-1,-1,-1,1,0,-1,-1,-1,1,36,104,64,0,36,0,0,0,0,0,0,0,297,0,0,0,0,0,0,0,0,0,0,0,0,0,0,0,0,0,0,0,0,0,0,0,0,0,0,0,0,0,0,0,0,0,0,0,0,0,0,0,0,0,0,0,0,0,0,0,0,0,0,0,
2026-05-29,09:09:13.650,8.30,100,80,0,-0.561,6.00,25,0.857,72,0,0.016,100,100,10.24,-55.76,0.00,48,55.416600 12.873600,43,2026-05-29 09:09:13,0,-329,63,0,-430,0,44,0,322,0,0,-1,-1,-1,-1,-1,1,0,-1,-1,-1,1,36,128,63,0,36,0,0,0,0,0,0,0,297,0,0,0,0,0,0,0,0,0,0,0,0,0,0,0,0,0,0,0,0,0,0,0,0,0,0,0,0,0,0,0,0,0,0,0,0,0,0,0,0,0,0,0,0,0,0,0,0,0,0,0,
2026-05-29,09:09:13.760,8.30,100,80,0,-0.561,6.00,25,0.857,71,0,0.016,100,100,10.24,-55.76,0.00,48,55.416600 12.873600,43,2026-05-29 09:09:13,0,-274,0,0,-430,0,45,-1,322,0,0,-1,-1,-1,-1,-1,1,0,-1,-1,-1,1,36,106,0,0,36,0,0,0,0,0,0,0,297,0,0,0,0,0,0,0,0,0,0,0,0,0,0,0,0,0,0,0,0,0,0,0,0,0,0,0,0,0,0,0,0,0,0,0,0,0,0,0,0,0,0,0,0,0,0,0,0,0,0,0,
2026-05-29,09:09:13.880,8.30,100,81,0,-0.553,5.97,25,0.944,71,0,-0.008,100,100,7.30,-57.97,0.00,48,55.416700 12.873600,43,2026-05-29 09:09:13,0,-266,0,0,-429,0,45,-7,322,0,0,-1,-1,-1,-1,-1,1,0,-1,-1,-1,1,36,103,0,0,36,0,0,0,0,0,0,0,297,0,0,0,0,0,0,0,0,0,0,0,0,0,0,0,0,0,0,0,0,0,0,0,0,0,0,0,0,0,0,0,0,0,0,0,0,0,0,0,0,0,0,0,0,0,0,0,0,0,0,0,
2026-05-29,09:09:14.000,8.31,100,80,0,-0.543,5.98,25,0.883,69,0,0.085,100,100,7.30,-57.97,0.00,37,55.416700 12.873700,51,2026-05-29 09:09:14,0,-284,0,0,-430,0,45,-15,321,0,0,-1,-1,-1,-1,-1,1,0,-1,-1,-1,1,36,110,0,0,36,0,0,0,0,0,0,0,297,0,0,0,0,0,0,0,0,0,0,0,0,0,0,0,0,0,0,0,0,0,0,0,0,0,0,0,0,0,0,0,0,0,0,0,0,0,0,0,0,0,0,0,0,0,0,0,0,0,0,0,
2026-05-29,09:09:14.120,8.30,100,80,0,-0.543,5.96,25,0.883,68,0,0.085,100,100,5.62,-59.43,0.00,37,55.416700 12.873700,51,2026-05-29 09:09:14,0,-309,0,0,-430,0,45,-15,322,0,0,-1,-1,-1,-1,-1,1,0,-1,-1,-1,1,36,120,0,0,36,0,0,0,0,0,0,0,297,0,0,0,0,0,0,0,0,0,0,0,0,0,0,0,0,0,0,0,0,0,0,0,0,0,0,0,0,0,0,0,0,0,0,0,0,0,0,0,0,0,0,0,0,0,0,0,0,0,0,0,
2026-05-29,09:09:14.230,8.31,100,80,0,-0.519,5.94,25,0.492,66,0,0.040,100,100,5.30,-60.72,0.00,37,55.416700 12.873700,51,2026-05-29 09:09:14,0,-265,0,0,-430,0,45,0,322,0,0,-1,-1,-1,-1,-1,1,0,-1,-1,-1,1,36,103,0,0,36,0,0,0,0,0,0,0,297,0,0,0,0,0,0,0,0,0,0,0,0,0,0,0,0,0,0,0,0,0,0,0,0,0,0,0,0,0,0,0,0,0,0,0,0,0,0,0,0,0,0,0,0,0,0,0,0,0,0,0,
2026-05-29,09:09:14.340,8.31,100,80,0,-0.546,5.96,25,0.625,66,0,0.024,100,100,3.40,-63.30,0.00,37,55.416700 12.873700,51,2026-05-29 09:09:14,0,-298,0,-116,-430,4,45,-7,322,0,0,-1,-1,-1,-1,-1,1,0,-1,-1,-1,1,76,115,0,0,76,0,0,0,0,0,0,0,297,0,0,0,0,0,0,0,0,0,0,0,0,0,0,0,0,0,0,0,0,0,0,0,0,0,0,0,0,0,0,0,0,0,0,0,0,0,0,0,0,0,0,0,0,0,0,0,0,0,0,0,
2026-05-29,09:09:14.450,8.31,100,81,0,-0.546,5.97,25,0.625,66,0,0.024,100,100,3.40,-63.30,0.00,32,55.416700 12.873700,51,2026-05-29 09:09:14,0,-281,0,0,-430,0,44,-3,322,0,0,-1,-1,-1,-1,-1,1,0,-1,-1,-1,1,36,109,0,0,36,0,0,0,0,0,0,0,297,0,0,0,0,0,0,0,0,0,0,0,0,0,0,0,0,0,0,0,0,0,0,0,0,0,0,0,0,0,0,0,0,0,0,0,0,0,0,0,0,0,0,0,0,0,0,0,0,0,0,0,
2026-05-29,09:09:14.570,8.31,100,81,0,-0.575,5.96,25,0.600,66,0,0.025,100,100,0.67,-66.39,0.00,32,55.416700 12.873700,51,2026-05-29 09:09:14,0,-308,0,0,-429,1,45,-1,321,0,0,-1,-1,-1,-1,-1,1,0,-1,-1,-1,1,36,119,0,0,36,0,0,0,0,0,0,0,298,0,0,0,0,0,0,0,0,0,0,0,0,0,0,0,0,0,0,0,0,0,0,0,0,0,0,0,0,0,0,0,0,0,0,0,0,0,0,0,0,0,0,0,0,0,0,0,0,0,0,0,
2026-05-29,09:09:14.690,8.31,100,82,0,-0.569,5.97,25,0.538,67,0,0.009,100,100,-4.03,-69.65,0.00,32,55.416700 12.873700,51,2026-05-29 09:09:14,0,-323,79,17,-429,0,45,-1,321,0,0,-1,-1,-1,-1,-1,1,0,-1,-1,-1,1,30,125,79,0,30,0,0,0,0,0,0,0,298,0,0,0,0,0,0,0,0,0,0,0,0,0,0,0,0,0,0,0,0,0,0,0,0,0,0,0,0,0,0,0,0,0,0,0,0,0,0,0,0,0,0,0,0,0,0,0,0,0,0,0,
2026-05-29,09:09:14.800,8.31,100,82,0,-0.569,5.98,25,0.538,69,0,0.009,100,100,-4.03,-69.65,0.00,32,55.416700 12.873700,51,2026-05-29 09:09:14,0,-326,47,16,-430,0,45,0,322,0,0,-1,-1,-1,-1,-1,1,0,-1,-1,-1,1,30,126,47,0,30,0,0,0,0,0,0,0,297,0,0,0,0,0,0,0,0,0,0,0,0,0,0,0,0,0,0,0,0,0,0,0,0,0,0,0,0,0,0,0,0,0,0,0,0,0,0,0,0,0,0,0,0,0,0,0,0,0,0,0,
2026-05-29,09:09:14.940,8.31,100,82,0,-0.664,5.96,25,0.471,69,0,-0.027,100,100,-9.51,-72.57,0.00,24,55.416800 12.873800,59,2026-05-29 09:09:14,0,-226,0,73,-430,1,45,0,321,0,0,-1,-1,-1,-1,-1,1,0,-1,-1,-1,1,9,88,0,0,9,0,0,0,0,0,0,0,297,0,0,0,0,0,0,0,0,0,0,0,0,0,0,0,0,0,0,0,0,0,0,0,0,0,0,0,0,0,0,0,0,0,0,0,0,0,0,0,0,0,0,0,0,0,0,0,0,0,0,0,
2026-05-29,09:09:15.060,8.31,100,83,0,-0.596,5.93,25,0.356,69,0,-0.017,100,100,-17.45,-74.78,0.00,24,55.416800 12.873800,59,2026-05-29 09:09:15,0,-228,0,70,-429,0,45,-3,321,0,0,-1,-1,-1,-1,-1,1,0,-1,-1,-1,1,10,89,0,0,10,0,0,0,0,0,0,0,298,0,0,0,0,0,0,0,0,0,0,0,0,0,0,0,0,0,0,0,0,0,0,0,0,0,0,0,0,0,0,0,0,0,0,0,0,0,0,0,0,0,0,0,0,0,0,0,0,0,0,0,
2026-05-29,09:09:15.180,8.31,100,84,0,-0.606,5.93,25,0.252,68,0,-0.032,100,100,-25.55,-76.00,0.00,24,55.416800 12.873800,59,2026-05-29 09:09:15,0,-258,61,62,-430,0,45,0,322,0,0,-1,-1,-1,-1,-1,1,0,-1,-1,-1,1,13,100,61,0,13,0,0,0,0,0,0,0,297,0,0,0,0,0,0,0,0,0,0,0,0,0,0,0,0,0,0,0,0,0,0,0,0,0,0,0,0,0,0,0,0,0,0,0,0,0,0,0,0,0,0,0,0,0,0,0,0,0,0,0,
2026-05-29,09:09:15.300,8.31,100,84,0,-0.606,5.94,25,0.252,68,0,-0.032,100,100,-25.55,-76.00,0.00,24,55.416800 12.873800,59,2026-05-29 09:09:15,0,-191,67,99,-430,0,45,-5,322,0,0,-1,-1,-1,-1,-1,1,0,-1,-1,-1,1,0,74,67,0,0,0,0,0,0,0,0,0,297,0,0,0,0,0,0,0,0,0,0,0,0,0,0,0,0,0,0,0,0,0,0,0,0,0,0,0,0,0,0,0,0,0,0,0,0,0,0,0,0,0,0,0,0,0,0,0,0,0,0,0,
2026-05-29,09:09:15.410,8.31,100,84,0,-0.693,5.96,25,0.206,66,0,-0.055,100,100,-34.90,-76.49,0.00,21,55.416800 12.873800,59,2026-05-29 09:09:15,0,-171,118,109,-430,3,46,-1,322,0,0,-1,-1,-1,-1,-1,1,0,-1,-1,-1,1,-4,69,118,0,-4,0,0,0,0,0,0,0,297,0,0,0,0,0,0,0,0,0,0,0,0,0,0,0,0,0,0,0,0,0,0,0,0,0,0,0,0,0,0,0,0,0,0,0,0,0,0,0,0,0,0,0,0,0,0,0,0,0,0,0,
2026-05-29,09:09:15.520,8.31,100,84,0,-0.775,5.97,25,0.252,65,0,-0.042,100,100,-47.33,-76.45,0.00,21,55.416800 12.873800,59,2026-05-29 09:09:15,0,-208,142,224,-430,0,45,0,321,0,0,-1,-1,-1,-1,-1,1,0,-1,-1,-1,1,-47,81,142,0,-47,0,0,0,0,0,0,0,297,0,0,0,0,0,0,0,0,0,0,0,0,0,0,0,0,0,0,0,0,0,0,0,0,0,0,0,0,0,0,0,0,0,0,0,0,0,0,0,0,0,0,0,0,0,0,0,0,0,0,0,
2026-05-29,09:09:15.640,8.31,100,85,0,-0.775,5.98,25,0.252,64,0,-0.042,100,100,-47.33,-76.45,0.00,21,55.416800 12.873800,59,2026-05-29 09:09:15,37,-203,251,258,-429,0,45,-1,322,0,0,-1,-1,-1,-1,-1,1,0,-1,-1,-1,1,-60,80,251,11,-60,0,0,0,0,0,0,0,298,0,0,0,0,0,0,0,0,0,0,0,0,0,0,0,0,0,0,0,0,0,0,0,0,0,0,0,0,0,0,0,0,0,0,0,0,0,0,0,0,0,0,0,0,0,0,0,0,0,0,0,
2026-05-29,09:09:15.780,8.31,100,85,0,-0.843,5.99,25,0.222,62,0,-0.043,100,100,-60.48,-75.67,0.00,21,55.416800 12.873800,59,2026-05-29 09:09:15,102,-191,262,269,-430,0,45,-2,321,0,0,-1,-1,-1,-1,-1,1,0,-1,-1,-1,1,-64,75,262,31,-64,0,0,0,0,0,0,0,297,0,0,0,0,0,0,0,0,0,0,0,0,0,0,0,0,0,0,0,0,0,0,0,0,0,0,0,0,0,0,0,0,0,0,0,0,0,0,0,0,0,0,0,0,0,0,0,0,0,0,0,
2026-05-29,09:09:15.890,8.31,100,85,0,-1.040,5.96,25,0.159,62,0,-0.092,100,100,-69.64,-74.80,0.00,21,55.416800 12.873900,59,2026-05-29 09:09:15,122,-207,267,280,-429,1,45,0,322,0,0,-1,-1,-1,-1,-1,1,0,-1,-1,-1,1,-69,81,267,37,-69,0,0,0,0,0,0,0,298,0,0,0,0,0,0,0,0,0,0,0,0,0,0,0,0,0,0,0,0,0,0,0,0,0,0,0,0,0,0,0,0,0,0,0,0,0,0,0,0,0,0,0,0,0,0,0,0,0,0,0,
2026-05-29,09:09:16.020,8.31,100,86,0,-1.041,5.97,25,0.142,64,0,-0.101,100,100,-75.89,-74.33,0.00,17,55.416800 12.873900,63,2026-05-29 09:09:16,140,-202,267,267,-430,0,45,0,322,0,0,-1,-1,-1,-1,-1,1,0,-1,-1,-1,1,-63,79,267,42,-63,0,0,0,0,0,0,0,297,0,0,0,0,0,0,0,0,0,0,0,0,0,0,0,0,0,0,0,0,0,0,0,0,0,0,0,0,0,0,0,0,0,0,0,0,0,0,0,0,0,0,0,0,0,0,0,0,0,0,0,
2026-05-29,09:09:16.140,8.31,100,86,0,-1.041,5.96,25,0.142,66,0,-0.101,100,100,-75.89,-74.33,0.00,17,55.416800 12.873900,63,2026-05-29 09:09:16,117,-256,256,218,-429,0,45,0,321,0,0,-1,-1,-1,-1,-1,1,0,-1,-1,-1,1,-45,99,256,35,-45,0,0,0,0,0,0,0,298,0,0,0,0,0,0,0,0,0,0,0,0,0,0,0,0,0,0,0,0,0,0,0,0,0,0,0,0,0,0,0,0,0,0,0,0,0,0,0,0,0,0,0,0,0,0,0,0,0,0,0,
2026-05-29,09:09:16.250,8.30,100,87,0,-1.036,5.97,25,0.148,67,0,-0.142,100,100,-82.30,-74.16,0.00,17,55.416800 12.873900,63,2026-05-29 09:09:16,118,-291,238,156,-430,2,45,0,322,0,0,-1,-1,-1,-1,-1,1,0,-1,-1,-1,1,-22,113,238,35,-22,0,0,0,0,0,0,0,297,0,0,0,0,0,0,0,0,0,0,0,0,0,0,0,0,0,0,0,0,0,0,0,0,0,0,0,0,0,0,0,0,0,0,0,0,0,0,0,0,0,0,0,0,0,0,0,0,0,0,0,
2026-05-29,09:09:16.360,8.30,100,87,0,-0.995,5.98,25,0.094,69,0,-0.170,100,100,-89.04,-73.84,0.00,17,55.416800 12.873900,63,2026-05-29 09:09:16,183,-206,122,199,-429,0,45,-2,322,0,0,-1,-1,-1,-1,-1,1,0,-1,-1,-1,1,-37,81,122,55,-37,0,0,0,0,0,0,0,298,0,0,0,0,0,0,0,0,0,0,0,0,0,0,0,0,0,0,0,0,0,0,0,0,0,0,0,0,0,0,0,0,0,0,0,0,0,0,0,0,0,0,0,0,0,0,0,0,0,0,0,
2026-05-29,09:09:16.480,8.31,100,87,0,-0.995,5.96,25,0.094,68,0,-0.170,100,100,-89.04,-73.84,0.00,18,55.416800 12.873900,63,2026-05-29 09:09:16,258,-46,150,291,-429,0,46,0,322,0,0,-1,-1,-1,-1,-1,1,0,-1,-1,-1,1,-74,25,150,79,-74,0,0,0,0,0,0,0,298,0,0,0,0,0,0,0,0,0,0,0,0,0,0,0,0,0,0,0,0,0,0,0,0,0,0,0,0,0,0,0,0,0,0,0,0,0,0,0,0,0,0,0,0,0,0,0,0,0,0,0,
2026-05-29,09:09:16.590,8.31,100,87,0,-0.792,5.97,25,0.140,70,0,-0.163,100,100,-97.08,-73.38,0.00,18,55.416800 12.873900,63,2026-05-29 09:09:16,371,-93,177,225,-429,0,45,-5,322,0,0,-1,-1,-1,-1,-1,1,0,-1,-1,-1,1,-47,41,177,116,-47,0,0,0,0,0,0,0,298,0,0,0,0,0,0,0,0,0,0,0,0,0,0,0,0,0,0,0,0,0,0,0,0,0,0,0,0,0,0,0,0,0,0,0,0,0,0,0,0,0,0,0,0,0,0,0,0,0,0,0,
2026-05-29,09:09:16.710,8.30,100,88,0,-0.877,5.98,25,0.047,70,0,-0.203,100,100,-100.99,-72.51,0.00,18,55.416800 12.873900,63,2026-05-29 09:09:16,400,-126,182,207,-430,1,45,-4,322,0,0,-1,-1,-1,-1,-1,1,0,-1,-1,-1,1,-41,53,182,127,-41,0,0,0,0,0,0,0,297,0,0,0,0,0,0,0,0,0,0,0,0,0,0,0,0,0,0,0,0,0,0,0,0,0,0,0,0,0,0,0,0,0,0,0,0,0,0,0,0,0,0,0,0,0,0,0,0,0,0,0,
2026-05-29,09:09:16.830,8.30,100,88,0,-0.877,5.96,25,0.047,70,0,-0.203,100,100,-100.99,-72.51,0.00,18,55.416800 12.873900,63,2026-05-29 09:09:16,316,-215,245,184,-430,1,46,-7,321,0,0,-1,-1,-1,-1,-1,1,0,-1,-1,-1,1,-31,84,245,98,-31,0,0,0,0,0,0,0,297,0,0,0,0,0,0,0,0,0,0,0,0,0,0,0,0,0,0,0,0,0,0,0,0,0,0,0,0,0,0,0,0,0,0,0,0,0,0,0,0,0,0,0,0,0,0,0,0,0,0,0,
2026-05-29,09:09:16.950,8.31,100,88,0,-0.962,5.97,25,0.034,71,0,-0.234,100,100,-102.43,-72.37,0.00,18,55.416800 12.873900,67,2026-05-29 09:09:16,335,-245,239,195,-430,0,45,-16,322,0,0,-1,-1,-1,-1,-1,1,0,-1,-1,-1,1,-36,95,239,105,-36,0,0,0,0,0,0,0,297,0,0,0,0,0,0,0,0,0,0,0,0,0,0,0,0,0,0,0,0,0,0,0,0,0,0,0,0,0,0,0,0,0,0,0,0,0,0,0,0,0,0,0,0,0,0,0,0,0,0,0,
2026-05-29,09:09:17.080,8.31,100,88,0,-1.020,5.98,25,0.007,72,0,-0.272,100,100,-106.90,-72.56,0.00,17,55.416800 12.873900,67,2026-05-29 09:09:17,373,-234,215,223,-430,0,45,0,322,0,0,-1,-1,-1,-1,-1,1,0,-1,-1,-1,1,-47,91,215,117,-47,0,0,0,0,0,0,0,297,0,0,0,0,0,0,0,0,0,0,0,0,0,0,0,0,0,0,0,0,0,0,0,0,0,0,0,0,0,0,0,0,0,0,0,0,0,0,0,0,0,0,0,0,0,0,0,0,0,0,0,
2026-05-29,09:09:17.200,8.31,100,88,0,-0.985,5.98,25,-0.004,73,0,-0.262,100,100,-106.90,-72.56,0.00,17,55.416800 12.873900,67,2026-05-29 09:09:17,374,-172,239,226,-429,0,45,0,322,0,0,-1,-1,-1,-1,-1,1,0,-1,-1,-1,1,-48,69,239,117,-48,0,0,0,0,0,0,0,298,0,0,0,0,0,0,0,0,0,0,0,0,0,0,0,0,0,0,0,0,0,0,0,0,0,0,0,0,0,0,0,0,0,0,0,0,0,0,0,0,0,0,0,0,0,0,0,0,0,0,0,
2026-05-29,09:09:17.310,8.31,100,88,0,-0.985,5.96,25,-0.004,73,0,-0.262,100,100,-113.79,-71.71,0.00,17,55.416800 12.873900,67,2026-05-29 09:09:17,417,-132,232,230,-429,0,46,-7,322,0,0,-1,-1,-1,-1,-1,1,0,-1,-1,-1,1,-49,55,232,133,-49,0,0,0,0,0,0,0,298,0,0,0,0,0,0,0,0,0,0,0,0,0,0,0,0,0,0,0,0,0,0,0,0,0,0,0,0,0,0,0,0,0,0,0,0,0,0,0,0,0,0,0,0,0,0,0,0,0,0,0,
2026-05-29,09:09:17.420,8.31,100,88,0,-1.019,5.94,25,-0.031,74,0,-0.317,100,100,-118.14,-70.45,0.00,17,55.416800 12.873900,67,2026-05-29 09:09:17,442,-149,237,224,-429,1,44,-1,321,0,0,-1,-1,-1,-1,-1,1,0,-1,-1,-1,1,-47,61,237,142,-47,0,0,0,0,0,0,0,298,0,0,0,0,0,0,0,0,0,0,0,0,0,0,0,0,0,0,0,0,0,0,0,0,0,0,0,0,0,0,0,0,0,0,0,0,0,0,0,0,0,0,0,0,0,0,0,0,0,0,0,
2026-05-29,09:09:17.530,8.31,100,88,0,-1.025,5.95,25,-0.175,73,0,-0.317,100,100,-118.14,-70.45,0.00,17,55.416800 12.873900,67,2026-05-29 09:09:17,450,-135,236,219,-430,0,45,-5,322,0,0,-1,-1,-1,-1,-1,1,0,-1,-1,-1,1,-46,56,236,145,-46,0,0,0,0,0,0,0,297,0,0,0,0,0,0,0,0,0,0,0,0,0,0,0,0,0,0,0,0,0,0,0,0,0,0,0,0,0,0,0,0,0,0,0,0,0,0,0,0,0,0,0,0,0,0,0,0,0,0,0,
2026-05-29,09:09:17.650,8.31,100,88,0,-1.025,5.94,25,-0.175,73,0,-0.345,100,100,-119.31,-69.78,0.00,17,55.416800 12.873900,67,2026-05-29 09:09:17,444,-132,240,181,-430,0,46,-1,322,0,0,-1,-1,-1,-1,-1,1,0,-1,-1,-1,1,-30,55,240,143,-30,0,0,0,0,0,0,0,297,0,0,0,0,0,0,0,0,0,0,0,0,0,0,0,0,0,0,0,0,0,0,0,0,0,0,0,0,0,0,0,0,0,0,0,0,0,0,0,0,0,0,0,0,0,0,0,0,0,0,0,
2026-05-29,09:09:17.770,8.31,100,88,0,-1.007,5.95,25,-0.024,73,0,-0.398,100,100,-118.04,-68.80,0.00,17,55.416800 12.873900,67,2026-05-29 09:09:17,438,-103,230,258,-430,0,46,0,322,0,0,-1,-1,-1,-1,-1,1,0,-1,-1,-1,1,-60,45,229,141,-60,0,0,0,0,0,0,0,297,0,0,0,0,0,0,0,0,0,0,0,0,0,0,0,0,0,0,0,0,0,0,0,0,0,0,0,0,0,0,0,0,0,0,0,0,0,0,0,0,0,0,0,0,0,0,0,0,0,0,0,
2026-05-29,09:09:17.880,8.31,100,88,0,-0.977,5.94,25,-0.058,72,0,-0.396,100,100,-115.60,-67.25,0.00,17,55.416800 12.873900,67,2026-05-29 09:09:17,494,-58,175,232,-430,0,46,-17,322,0,0,-1,-1,-1,-1,-1,1,0,-1,-1,-1,1,-50,29,175,162,-50,0,0,0,0,0,0,0,297,0,0,0,0,0,0,0,0,0,0,0,0,0,0,0,0,0,0,0,0,0,0,0,0,0,0,0,0,0,0,0,0,0,0,0,0,0,0,0,0,0,0,0,0,0,0,0,0,0,0,0,
2026-05-29,09:09:17.990,8.30,100,87,0,-0.977,5.93,25,-0.058,72,0,-0.396,100,100,-115.60,-67.25,0.00,16,55.416900 12.873900,71,2026-05-29 09:09:18,465,-17,165,281,-429,0,45,-4,321,0,0,-1,-1,-1,-1,-1,1,0,-1,-1,-1,1,-70,14,165,150,-70,0,0,0,0,0,0,0,298,0,0,0,0,0,0,0,0,0,0,0,0,0,0,0,0,0,0,0,0,0,0,0,0,0,0,0,0,0,0,0,0,0,0,0,0,0,0,0,0,0,0,0,0,0,0,0,0,0,0,0,
2026-05-29,09:09:18.110,8.30,100,87,0,-0.870,5.96,25,-0.148,71,0,-0.372,100,100,-112.91,-65.06,0.00,16,55.416900 12.873900,71,2026-05-29 09:09:18,574,-27,145,297,-429,0,45,-1,322,0,0,-1,-1,-1,-1,-1,1,0,-1,-1,-1,1,-75,25,145,195,-75,0,0,0,0,0,0,0,297,0,0,0,0,0,0,0,0,0,0,0,0,0,0,0,0,0,0,0,0,0,0,0,0,0,0,0,0,0,0,0,0,0,0,0,0,0,0,0,0,0,0,0,0,0,0,0,0,0,0,0,
2026-05-29,09:09:18.220,8.30,100,87,0,-0.831,5.97,25,-0.041,71,0,-0.391,100,100,-107.02,-63.04,0.00,16,55.416900 12.873900,71,2026-05-29 09:09:18,586,-125,145,259,-430,3,45,0,322,0,0,-1,-1,-1,-1,-1,1,0,-1,-1,-1,1,-60,52,145,199,-60,0,0,0,0,0,0,0,297,0,0,0,0,0,0,0,0,0,0,0,0,0,0,0,0,0,0,0,0,0,0,0,0,0,0,0,0,0,0,0,0,0,0,0,0,0,0,0,0,0,0,0,0,0,0,0,0,0,0,0,
2026-05-29,09:09:18.350,8.30,100,86,0,-0.831,5.98,25,-0.041,72,0,-0.391,100,100,-107.02,-63.04,0.00,16,55.416900 12.873900,71,2026-05-29 09:09:18,635,-143,146,257,-430,0,45,0,322,0,0,-1,-1,-1,-1,-1,1,0,-1,-1,-1,1,-59,59,146,219,-59,0,0,0,0,0,0,0,297,0,0,0,0,0,0,0,0,0,0,0,0,0,0,0,0,0,0,0,0,0,0,0,0,0,0,0,0,0,0,0,0,0,0,0,0,0,0,0,0,0,0,0,0,0,0,0,0,0,0,0,
2026-05-29,09:09:18.470,8.30,100,85,0,-0.807,5.98,25,0.023,72,0,-0.441,100,100,-99.80,-61.23,0.00,17,55.416900 12.873900,71,2026-05-29 09:09:18,571,-206,146,225,-429,1,45,0,322,0,0,-1,-1,-1,-1,-1,1,0,-1,-1,-1,1,-48,81,146,193,-48,0,0,0,0,0,0,0,298,0,0,0,0,0,0,0,0,0,0,0,0,0,0,0,0,0,0,0,0,0,0,0,0,0,0,0,0,0,0,0,0,0,0,0,0,0,0,0,0,0,0,0,0,0,0,0,0,0,0,0,
2026-05-29,09:09:18.580,8.30,100,85,0,-0.797,5.99,25,0.079,73,0,-0.385,100,100,-93.94,-58.54,0.00,17,55.416900 12.873900,71,2026-05-29 09:09:18,495,-268,146,222,-429,1,45,0,322,0,0,-1,-1,-1,-1,-1,1,0,-1,-1,-1,1,-47,104,146,162,-47,0,0,0,0,0,0,0,298,0,0,0,0,0,0,0,0,0,0,0,0,0,0,0,0,0,0,0,0,0,0,0,0,0,0,0,0,0,0,0,0,0,0,0,0,0,0,0,0,0,0,0,0,0,0,0,0,0,0,0,
2026-05-29,09:09:18.720,8.31,100,84,0,-0.797,5.95,25,0.141,72,0,-0.357,100,100,-93.94,-58.54,0.00,17,55.416900 12.873900,71,2026-05-29 09:09:18,442,-248,150,323,-430,0,45,-4,322,0,0,-1,-1,-1,-1,-1,1,0,-1,-1,-1,1,-86,96,150,142,-86,0,0,0,0,0,0,0,297,0,0,0,0,0,0,0,0,0,0,0,0,0,0,0,0,0,0,0,0,0,0,0,0,0,0,0,0,0,0,0,0,0,0,0,0,0,0,0,0,0,0,0,0,0,0,0,0,0,0,0,
2026-05-29,09:09:18.840,8.30,100,84,0,-0.797,5.96,25,0.141,72,0,-0.357,100,100,-91.34,-54.19,0.00,17,55.416900 12.873900,71,2026-05-29 09:09:18,462,-151,169,428,-430,1,46,0,322,0,0,-1,-1,-1,-1,-1,1,0,-1,-1,-1,1,-131,61,169,150,-131,0,0,0,0,0,0,0,297,0,0,0,0,0,0,0,0,0,0,0,0,0,0,0,0,0,0,0,0,0,0,0,0,0,0,0,0,0,0,0,0,0,0,0,0,0,0,0,0,0,0,0,0,0,0,0,0,0,0,0,
2026-05-29,09:09:18.950,8.30,100,83,0,-0.798,5.97,25,0.341,71,0,-0.357,100,100,-91.88,-49.54,0.00,17,55.416900 12.873800,75,2026-05-29 09:09:18,493,0,140,561,-430,1,45,0,322,0,0,-1,-1,-1,-1,-1,1,0,-1,-1,-1,1,-194,8,140,162,-194,0,0,0,0,0,0,0,297,0,0,0,0,0,0,0,0,0,0,0,0,0,0,0,0,0,0,0,0,0,0,0,0,0,0,0,0,0,0,0,0,0,0,0,0,0,0,0,0,0,0,0,0,0,0,0,0,0,0,0,
2026-05-29,09:09:19.070,8.31,100,82,0,-0.769,5.95,25,0.451,70,0,-0.336,100,100,-85.11,-46.47,0.00,18,55.416900 12.873800,75,2026-05-29 09:09:19,512,-58,145,553,-430,0,46,0,321,0,0,-1,-1,-1,-1,-1,1,0,-1,-1,-1,1,-190,29,145,169,-190,0,0,0,0,0,0,0,297,0,0,0,0,0,0,0,0,0,0,0,0,0,0,0,0,0,0,0,0,0,0,0,0,0,0,0,0,0,0,0,0,0,0,0,0,0,0,0,0,0,0,0,0,0,0,0,0,0,0,0,
2026-05-29,09:09:19.190,8.30,100,81,0,-0.769,5.97,25,0.451,69,0,-0.336,100,100,-85.11,-46.47,0.00,18,55.416900 12.873800,75,2026-05-29 09:09:19,517,-76,145,506,-430,0,44,-6,322,0,0,-1,-1,-1,-1,-1,1,0,-1,-1,-1,1,-167,35,145,171,-167,0,0,0,0,0,0,0,297,0,0,0,0,0,0,0,0,0,0,0,0,0,0,0,0,0,0,0,0,0,0,0,0,0,0,0,0,0,0,0,0,0,0,0,0,0,0,0,0,0,0,0,0,0,0,0,0,0,0,0,
2026-05-29,09:09:19.320,8.31,100,79,0,-0.748,5.98,25,0.668,71,0,-0.224,100,100,-70.39,-43.80,0.00,18,55.416900 12.873800,75,2026-05-29 09:09:19,526,-58,146,499,-429,0,46,-5,322,0,0,-1,-1,-1,-1,-1,1,0,-1,-1,-1,1,-164,29,146,174,-164,0,0,0,0,0,0,0,298,0,0,0,0,0,0,0,0,0,0,0,0,0,0,0,0,0,0,0,0,0,0,0,0,0,0,0,0,0,0,0,0,0,0,0,0,0,0,0,0,0,0,0,0,0,0,0,0,0,0,0,
2026-05-29,09:09:19.430,8.31,100,78,0,-0.728,5.99,25,0.924,71,0,-0.268,100,100,-54.23,-41.63,0.00,19,55.416900 12.873800,75,2026-05-29 09:09:19,522,-76,145,486,-430,2,44,0,322,0,0,-1,-1,-1,-1,-1,1,0,-1,-1,-1,1,-158,35,145,173,-158,0,0,0,0,0,0,0,297,0,0,0,0,0,0,0,0,0,0,0,0,0,0,0,0,0,0,0,0,0,0,0,0,0,0,0,0,0,0,0,0,0,0,0,0,0,0,0,0,0,0,0,0,0,0,0,0,0,0,0,
2026-05-29,09:09:19.550,8.31,100,77,0,-0.730,5.99,25,0.924,71,0,-0.212,100,100,-54.23,-41.63,0.00,19,55.416900 12.873800,75,2026-05-29 09:09:19,461,-105,144,425,-429,0,46,0,322,0,0,-1,-1,-1,-1,-1,1,0,-1,-1,-1,1,-129,46,144,150,-129,0,0,0,0,0,0,0,297,0,0,0,0,0,0,0,0,0,0,0,0,0,0,0,0,0,0,0,0,0,0,0,0,0,0,0,0,0,0,0,0,0,0,0,0,0,0,0,0,0,0,0,0,0,0,0,0,0,0,0,
2026-05-29,09:09:19.660,8.31,100,76,0,-0.730,5.97,25,1.243,71,0,-0.212,100,100,-39.66,-40.89,0.00,19,55.416900 12.873800,75,2026-05-29 09:09:19,405,-130,65,394,-430,0,45,0,321,0,0,-1,-1,-1,-1,-1,1,0,-1,-1,-1,1,-116,54,64,128,-116,0,0,0,0,0,0,0,297,0,0,0,0,0,0,0,0,0,0,0,0,0,0,0,0,0,0,0,0,0,0,0,0,0,0,0,0,0,0,0,0,0,0,0,0,0,0,0,0,0,0,0,0,0,0,0,0,0,0,0,
2026-05-29,09:09:19.780,8.31,100,74,0,-0.667,5.96,25,1.123,72,0,-0.261,100,100,-23.00,-39.87,0.00,19,55.416900 12.873800,75,2026-05-29 09:09:19,313,-128,-109,376,-429,0,45,0,322,0,0,-1,-1,-1,-1,-1,1,0,-1,-1,-1,1,-109,53,-109,97,-109,0,0,0,0,0,0,0,298,0,0,0,0,0,0,0,0,0,0,0,0,0,0,0,0,0,0,0,0,0,0,0,0,0,0,0,0,0,0,0,0,0,0,0,0,0,0,0,0,0,0,0,0,0,0,0,0,0,0,0,
2026-05-29,09:09:19.900,8.31,100,72,0,-0.395,5.94,25,1.043,68,0,-0.148,100,100,-2.30,-38.55,0.00,19,55.416900 12.873700,75,2026-05-29 09:09:19,221,-111,-136,294,-429,3,46,0,322,0,0,-1,-1,-1,-1,-1,1,0,-1,-1,-1,1,-75,47,-136,67,-75,0,0,0,0,0,0,0,298,0,0,0,0,0,0,0,0,0,0,0,0,0,0,0,0,0,0,0,0,0,0,0,0,0,0,0,0,0,0,0,0,0,0,0,0,0,0,0,0,0,0,0,0,0,0,0,0,0,0,0,
2026-05-29,09:09:20.030,8.31,100,69,0,-0.395,5.93,25,1.043,68,0,-0.148,100,100,-2.30,-38.55,0.00,24,55.416900 12.873700,77,2026-05-29 09:09:20,35,-155,-138,173,-429,0,45,0,322,0,0,-1,-1,-1,-1,-1,1,0,-1,-1,-1,1,-27,63,-139,10,-27,0,0,0,0,0,0,0,298,0,0,0,0,0,0,0,0,0,0,0,0,0,0,0,0,0,0,0,0,0,0,0,0,0,0,0,0,0,0,0,0,0,0,0,0,0,0,0,0,0,0,0,0,0,0,0,0,0,0,0,
2026-05-29,09:09:20.140,8.31,100,65,0,-0.328,5.95,25,0.791,69,0,-0.016,100,100,16.99,-35.41,0.00,24,55.416900 12.873700,77,2026-05-29 09:09:20,0,-151,-138,119,-429,0,46,0,321,0,0,-1,-1,-1,-1,-1,1,0,-1,-1,-1,1,-7,61,-138,0,-7,0,0,0,0,0,0,0,298,0,0,0,0,0,0,0,0,0,0,0,0,0,0,0,0,0,0,0,0,0,0,0,0,0,0,0,0,0,0,0,0,0,0,0,0,0,0,0,0,0,0,0,0,0,0,0,0,0,0,0,
2026-05-29,09:09:20.260,8.31,100,62,0,-0.333,5.96,25,1.059,70,0,0.062,100,100,29.02,-32.25,0.00,24,55.416900 12.873700,77,2026-05-29 09:09:20,0,-165,-137,99,-430,1,44,-2,322,0,0,-1,-1,-1,-1,-1,1,0,-1,-1,-1,1,0,67,-137,0,0,0,0,0,0,0,0,0,297,0,0,0,0,0,0,0,0,0,0,0,0,0,0,0,0,0,0,0,0,0,0,0,0,0,0,0,0,0,0,0,0,0,0,0,0,0,0,0,0,0,0,0,0,0,0,0,0,0,0,0,
2026-05-29,09:09:20.410,8.31,100,61,0,-0.322,5.96,25,0.500,71,0,0.127,100,100,37.34,-29.65,0.00,24,55.416900 12.873700,77,2026-05-29 09:09:20,0,-198,-124,70,-430,2,45,0,321,0,0,-1,-1,-1,-1,-1,1,0,-1,-1,-1,1,10,78,-124,0,10,0,0,0,0,0,0,0,298,0,0,0,0,0,0,0,0,0,0,0,0,0,0,0,0,0,0,0,0,0,0,0,0,0,0,0,0,0,0,0,0,0,0,0,0,0,0,0,0,0,0,0,0,0,0,0,0,0,0,0,
2026-05-29,09:09:20.520,8.31,100,61,0,-0.322,5.94,25,0.500,71,0,0.127,100,100,37.34,-29.65,0.00,24,55.416900 12.873700,77,2026-05-29 09:09:20,0,-271,-16,-70,-429,1,46,0,322,0,0,-1,-1,-1,-1,-1,1,0,-1,-1,-1,1,60,105,-16,0,60,0,0,0,0,0,0,0,298,0,0,0,0,0,0,0,0,0,0,0,0,0,0,0,0,0,0,0,0,0,0,0,0,0,0,0,0,0,0,0,0,0,0,0,0,0,0,0,0,0,0,0,0,0,0,0,0,0,0,0,
2026-05-29,09:09:20.640,8.30,100,60,0,-0.425,5.93,25,0.717,71,0,0.199,100,100,41.70,-27.54,0.00,24,55.416900 12.873700,77,2026-05-29 09:09:20,0,-267,-20,-274,-430,2,45,-2,322,0,0,-1,-1,-1,-1,-1,1,0,-1,-1,-1,1,132,103,-20,0,132,0,0,0,0,0,0,0,297,0,0,0,0,0,0,0,0,0,0,0,0,0,0,0,0,0,0,0,0,0,0,0,0,0,0,0,0,0,0,0,0,0,0,0,0,0,0,0,0,0,0,0,0,0,0,0,0,0,0,0,
2026-05-29,09:09:20.760,8.30,100,57,0,-0.468,5.93,25,0.961,71,0,0.180,100,100,40.40,-27.49,0.00,24,55.416900 12.873700,77,2026-05-29 09:09:20,0,-308,-25,-196,-430,0,45,-1,322,0,0,-1,-1,-1,-1,-1,1,0,-1,-1,-1,1,104,119,-25,0,104,0,0,0,0,0,0,0,297,0,0,0,0,0,0,0,0,0,0,0,0,0,0,0,0,0,0,0,0,0,0,0,0,0,0,0,0,0,0,0,0,0,0,0,0,0,0,0,0,0,0,0,0,0,0,0,0,0,0,0,
2026-05-29,09:09:20.900,8.30,100,56,0,-0.453,5.93,25,0.961,72,0,0.180,100,100,40.40,-27.49,0.00,24,55.416900 12.873600,77,2026-05-29 09:09:20,0,-280,-25,-130,-430,1,44,-1,322,0,0,-1,-1,-1,-1,-1,1,0,-1,-1,-1,1,80,108,-25,0,80,0,0,0,0,0,0,0,297,0,0,0,0,0,0,0,0,0,0,0,0,0,0,0,0,0,0,0,0,0,0,0,0,0,0,0,0,0,0,0,0,0,0,0,0,0,0,0,0,0,0,0,0,0,0,0,0,0,0,0,
2026-05-29,09:09:21.030,8.31,100,59,0,-0.453,5.93,25,1.152,72,0,0.129,100,100,34.14,-27.82,0.00,27,55.416900 12.873600,80,2026-05-29 09:09:21,0,-398,-25,-62,-430,0,45,0,322,0,0,-1,-1,-1,-1,-1,1,0,-1,-1,-1,1,57,156,-25,0,57,0,0,0,0,0,0,0,297,0,0,0,0,0,0,0,0,0,0,0,0,0,0,0,0,0,0,0,0,0,0,0,0,0,0,0,0,0,0,0,0,0,0,0,0,0,0,0,0,0,0,0,0,0,0,0,0,0,0,0,
2026-05-29,09:09:21.150,8.30,100,61,0,-0.451,5.94,25,1.309,71,0,0.149,100,100,32.83,-29.16,0.00,27,55.416900 12.873600,80,2026-05-29 09:09:21,0,-474,29,-13,-430,0,45,0,322,0,0,-1,-1,-1,-1,-1,1,0,-1,-1,-1,1,41,188,29,0,41,0,0,0,0,0,0,0,297,0,0,0,0,0,0,0,0,0,0,0,0,0,0,0,0,0,0,0,0,0,0,0,0,0,0,0,0,0,0,0,0,0,0,0,0,0,0,0,0,0,0,0,0,0,0,0,0,0,0,0,
2026-05-29,09:09:21.260,8.30,100,62,0,-0.488,5.93,25,1.611,71,0,0.147,100,100,32.96,-32.33,0.00,27,55.416900 12.873600,80,2026-05-29 09:09:21,0,-563,63,-167,-429,0,45,-3,322,0,0,-1,-1,-1,-1,-1,1,0,-1,-1,-1,1,93,229,63,0,93,0,0,0,0,0,0,0,298,0,0,0,0,0,0,0,0,0,0,0,0,0,0,0,0,0,0,0,0,0,0,0,0,0,0,0,0,0,0,0,0,0,0,0,0,0,0,0,0,0,0,0,0,0,0,0,0,0,0,0,
2026-05-29,09:09:21.400,8.30,100,60,0,-0.488,5.92,25,1.611,71,0,0.147,100,100,32.96,-32.33,0.00,29,55.416900 12.873600,80,2026-05-29 09:09:21,0,-489,63,-99,-429,0,46,-4,322,0,0,-1,-1,-1,-1,-1,1,0,-1,-1,-1,1,70,194,63,0,70,0,0,0,0,0,0,0,298,0,0,0,0,0,0,0,0,0,0,0,0,0,0,0,0,0,0,0,0,0,0,0,0,0,0,0,0,0,0,0,0,0,0,0,0,0,0,0,0,0,0,0,0,0,0,0,0,0,0,0,
2026-05-29,09:09:21.510,8.31,100,60,0,-0.497,5.91,25,1.751,71,0,0.222,100,100,34.35,-37.14,0.00,29,55.416900 12.873600,80,2026-05-29 09:09:21,0,-483,84,-81,-429,0,44,-3,322,0,0,-1,-1,-1,-1,-1,1,0,-1,-1,-1,1,64,193,84,0,64,0,0,0,0,0,0,0,298,0,0,0,0,0,0,0,0,0,0,0,0,0,0,0,0,0,0,0,0,0,0,0,0,0,0,0,0,0,0,0,0,0,0,0,0,0,0,0,0,0,0,0,0,0,0,0,0,0,0,0,
2026-05-29,09:09:21.620,8.31,100,60,0,-0.507,5.91,25,1.186,70,0,0.264,100,100,31.51,-39.77,0.00,29,55.416900 12.873600,80,2026-05-29 09:09:21,9,-426,86,0,-430,1,46,-1,322,0,0,-1,-1,-1,-1,-1,1,0,-1,-1,-1,1,36,168,86,3,36,0,0,0,0,0,0,0,297,0,0,0,0,0,0,0,0,0,0,0,0,0,0,0,0,0,0,0,0,0,0,0,0,0,0,0,0,0,0,0,0,0,0,0,0,0,0,0,0,0,0,0,0,0,0,0,0,0,0,0,
2026-05-29,09:09:21.740,8.31,100,59,0,-0.615,5.91,25,1.186,70,0,0.264,100,100,31.51,-39.77,0.00,29,55.416900 12.873600,80,2026-05-29 09:09:21,0,-454,172,-62,-429,1,45,0,322,0,0,-1,-1,-1,-1,-1,1,0,-1,-1,-1,1,57,179,172,0,57,0,0,0,0,0,0,0,298,0,0,0,0,0,0,0,0,0,0,0,0,0,0,0,0,0,0,0,0,0,0,0,0,0,0,0,0,0,0,0,0,0,0,0,0,0,0,0,0,0,0,0,0,0,0,0,0,0,0,0,
2026-05-29,09:09:21.880,8.31,100,61,0,-0.615,5.92,25,1.013,70,0,0.264,100,100,29.37,-40.32,0.00,29,55.416900 12.873600,80,2026-05-29 09:09:21,33,-482,82,-147,-430,0,45,-4,322,0,0,-1,-1,-1,-1,-1,1,0,-1,-1,-1,1,86,192,82,10,86,0,0,0,0,0,0,0,297,0,0,0,0,0,0,0,0,0,0,0,0,0,0,0,0,0,0,0,0,0,0,0,0,0,0,0,0,0,0,0,0,0,0,0,0,0,0,0,0,0,0,0,0,0,0,0,0,0,0,0,
2026-05-29,09:09:22.000,8.31,100,62,0,-0.729,5.94,25,1.581,70,0,0.153,100,100,31.39,-43.82,0.00,33,55.416900 12.873500,83,2026-05-29 09:09:22,0,-450,149,-154,-430,1,45,0,322,0,0,-1,-1,-1,-1,-1,1,0,-1,-1,-1,1,89,178,149,0,89,0,0,0,0,0,0,0,297,0,0,0,0,0,0,0,0,0,0,0,0,0,0,0,0,0,0,0,0,0,0,0,0,0,0,0,0,0,0,0,0,0,0,0,0,0,0,0,0,0,0,0,0,0,0,0,0,0,0,0,
2026-05-29,09:09:22.110,8.31,100,62,0,-0.593,5.93,25,1.801,68,0,0.150,100,100,36.72,-49.24,0.00,33,55.416900 12.873500,83,2026-05-29 09:09:22,0,-464,148,-167,-430,0,45,0,321,0,0,-1,-1,-1,-1,-1,1,0,-1,-1,-1,1,93,184,148,0,93,0,0,0,0,0,0,0,297,0,0,0,0,0,0,0,0,0,0,0,0,0,0,0,0,0,0,0,0,0,0,0,0,0,0,0,0,0,0,0,0,0,0,0,0,0,0,0,0,0,0,0,0,0,0,0,0,0,0,0,
2026-05-29,09:09:22.230,8.31,100,63,0,-0.593,5.93,25,1.801,66,0,0.150,100,100,36.72,-49.24,0.00,33,55.416900 12.873500,83,2026-05-29 09:09:22,24,-459,149,-292,-429,0,45,0,322,0,0,-1,-1,-1,-1,-1,1,0,-1,-1,-1,1,138,182,149,8,138,0,0,0,0,0,0,0,297,0,0,0,0,0,0,0,0,0,0,0,0,0,0,0,0,0,0,0,0,0,0,0,0,0,0,0,0,0,0,0,0,0,0,0,0,0,0,0,0,0,0,0,0,0,0,0,0,0,0,0,
2026-05-29,09:09:22.340,8.30,100,65,0,-0.628,5.92,25,1.196,66,0,0.033,100,100,37.23,-51.57,0.00,33,55.416900 12.873500,83,2026-05-29 09:09:22,53,-461,150,-389,-429,0,46,0,322,0,0,-1,-1,-1,-1,-1,1,0,-1,-1,-1,1,176,183,150,16,176,0,0,0,0,0,0,0,298,0,0,0,0,0,0,0,0,0,0,0,0,0,0,0,0,0,0,0,0,0,0,0,0,0,0,0,0,0,0,0,0,0,0,0,0,0,0,0,0,0,0,0,0,0,0,0,0,0,0,0,
2026-05-29,09:09:22.470,8.31,100,67,0,-0.649,5.91,25,1.095,64,0,0.006,100,100,33.41,-52.37,0.00,30,55.416900 12.873500,83,2026-05-29 09:09:22,45,-476,150,-387,-429,1,45,-18,322,0,0,-1,-1,-1,-1,-1,1,0,-1,-1,-1,1,175,189,150,14,175,0,0,0,0,0,0,0,298,0,0,0,0,0,0,0,0,0,0,0,0,0,0,0,0,0,0,0,0,0,0,0,0,0,0,0,0,0,0,0,0,0,0,0,0,0,0,0,0,0,0,0,0,0,0,0,0,0,0,0,
2026-05-29,09:09:22.590,8.30,100,68,0,-0.667,5.91,25,1.095,63,0,0.006,100,100,33.41,-52.37,0.00,30,55.416900 12.873500,83,2026-05-29 09:09:22,0,-487,164,-354,-430,0,46,-19,322,0,0,-1,-1,-1,-1,-1,1,0,-1,-1,-1,1,161,194,164,0,161,0,0,0,0,0,0,0,297,0,0,0,0,0,0,0,0,0,0,0,0,0,0,0,0,0,0,0,0,0,0,0,0,0,0,0,0,0,0,0,0,0,0,0,0,0,0,0,0,0,0,0,0,0,0,0,0,0,0,0,
2026-05-29,09:09:22.710,8.30,100,69,0,-0.667,5.91,25,1.322,60,0,0.006,100,100,24.97,-55.49,0.00,30,55.416900 12.873500,83,2026-05-29 09:09:22,14,-477,177,-423,-429,0,45,0,322,0,0,-1,-1,-1,-1,-1,1,0,-1,-1,-1,1,189,190,177,4,189,0,0,0,0,0,0,0,298,0,0,0,0,0,0,0,0,0,0,0,0,0,0,0,0,0,0,0,0,0,0,0,0,0,0,0,0,0,0,0,0,0,0,0,0,0,0,0,0,0,0,0,0,0,0,0,0,0,0,0,
2026-05-29,09:09:22.820,8.30,100,70,0,-0.702,5.90,25,1.224,59,0,-0.012,100,100,14.32,-60.20,0.00,30,55.416900 12.873500,83,2026-05-29 09:09:22,0,-567,175,-464,-430,0,46,-3,321,0,0,-1,-1,-1,-1,-1,1,0,-1,-1,-1,1,207,231,175,0,207,0,0,0,0,0,0,0,297,0,0,0,0,0,0,0,0,0,0,0,0,0,0,0,0,0,0,0,0,0,0,0,0,0,0,0,0,0,0,0,0,0,0,0,0,0,0,0,0,0,0,0,0,0,0,0,0,0,0,0,
2026-05-29,09:09:22.940,8.31,100,72,0,-0.704,5.90,25,1.225,60,0,-0.045,99,100,-0.70,-65.34,0.00,30,55.416900 12.873400,83,2026-05-29 09:09:22,33,-613,176,-621,-430,1,45,0,321,0,0,-1,-1,-1,-1,-1,1,0,-1,-1,-1,1,279,254,176,10,279,0,0,0,0,0,0,0,297,0,0,0,0,0,0,0,0,0,0,0,0,0,0,0,0,0,0,0,0,0,0,0,0,0,0,0,0,0,0,0,0,0,0,0,0,0,0,0,0,0,0,0,0,0,0,0,0,0,0,0,
2026-05-29,09:09:23.060,8.30,100,74,0,-0.704,5.90,25,1.225,63,0,-0.045,99,100,-0.70,-65.34,0.00,33,55.416900 12.873400,88,2026-05-29 09:09:23,26,-652,175,-642,-429,0,45,0,321,0,0,-1,-1,-1,-1,-1,1,0,-1,-1,-1,1,290,273,175,9,290,0,0,0,0,0,0,0,297,0,0,0,0,0,0,0,0,0,0,0,0,0,0,0,0,0,0,0,0,0,0,0,0,0,0,0,0,0,0,0,0,0,0,0,0,0,0,0,0,0,0,0,0,0,0,0,0,0,0,0,
2026-05-29,09:09:23.170,8.30,100,75,0,-0.695,5.90,25,1.121,64,0,-0.182,99,100,-24.38,-73.40,0.00,33,55.416900 12.873400,88,2026-05-29 09:09:23,24,-650,158,-623,-430,0,46,0,322,0,0,-1,-1,-1,-1,-1,1,0,-1,-1,-1,1,280,273,158,8,280,0,0,0,0,0,0,0,297,0,0,0,0,0,0,0,0,0,0,0,0,0,0,0,0,0,0,0,0,0,0,0,0,0,0,0,0,0,0,0,0,0,0,0,0,0,0,0,0,0,0,0,0,0,0,0,0,0,0,0,
2026-05-29,09:09:23.290,8.30,100,77,0,-0.710,5.90,25,1.198,64,0,-0.279,98,100,-24.38,-73.40,0.00,33,55.416900 12.873400,88,2026-05-29 09:09:23,31,-686,145,-632,-430,0,45,-1,322,0,0,-1,-1,-1,-1,-1,1,0,-1,-1,-1,1,285,293,145,9,285,0,0,0,0,0,0,0,297,0,0,0,0,0,0,0,0,0,0,0,0,0,0,0,0,0,0,0,0,0,0,0,0,0,0,0,0,0,0,0,0,0,0,0,0,0,0,0,0,0,0,0,0,0,0,0,0,0,0,0,
2026-05-29,09:09:23.410,8.30,100,78,0,-0.710,5.90,25,1.198,66,0,-0.279,98,100,-91.92,-80.49,0.00,27,55.416900 12.873400,88,2026-05-29 09:09:23,0,-633,106,-555,-429,0,45,0,322,0,0,-1,-1,-1,-1,-1,1,0,-1,-1,-1,1,247,264,105,1,246,0,0,0,0,0,0,0,297,0,0,0,0,0,0,0,0,0,0,0,0,0,0,0,0,0,0,0,0,0,0,0,0,0,0,0,0,0,0,0,0,0,0,0,0,0,0,0,0,0,0,0,0,0,0,0,0,0,0,0,
2026-05-29,09:09:23.550,8.30,100,79,0,-0.724,5.93,25,1.041,63,0,-0.284,98,100,-157.47,-71.18,0.00,27,55.416900 12.873400,88,2026-05-29 09:09:23,9,-615,-93,-500,-430,1,46,-2,321,0,0,-1,-1,-1,-1,-1,1,0,-1,-1,-1,1,222,255,-93,3,222,0,0,0,0,0,0,0,297,0,0,0,0,0,0,0,0,0,0,0,0,0,0,0,0,0,0,0,0,0,0,0,0,0,0,0,0,0,0,0,0,0,0,0,0,0,0,0,0,0,0,0,0,0,0,0,0,0,0,0,
2026-05-29,09:09:23.670,8.30,100,78,0,-0.453,5.92,25,0.711,62,0,-0.266,98,100,-93.99,-55.79,0.00,27,55.416900 12.873400,88,2026-05-29 09:09:23,0,-627,-130,-493,-429,0,45,-2,321,0,0,-1,-1,-1,-1,-1,1,0,-1,-1,-1,1,219,261,-130,0,219,0,0,0,0,0,0,0,298,0,0,0,0,0,0,0,0,0,0,0,0,0,0,0,0,0,0,0,0,0,0,0,0,0,0,0,0,0,0,0,0,0,0,0,0,0,0,0,0,0,0,0,0,0,0,0,0,0,0,0,
2026-05-29,09:09:23.790,8.30,100,78,0,-0.373,5.94,25,0.490,63,0,-0.203,99,100,172.02,-43.43,0.00,27,55.416900 12.873400,88,2026-05-29 09:09:23,0,-628,-131,-421,-430,2,46,-4,322,0,0,-1,-1,-1,-1,-1,1,0,-1,-1,-1,1,188,262,-131,0,188,0,0,0,0,0,0,0,297,0,0,0,0,0,0,0,0,0,0,0,0,0,0,0,0,0,0,0,0,0,0,0,0,0,0,0,0,0,0,0,0,0,0,0,0,0,0,0,0,0,0,0,0,0,0,0,0,0,0,0,
2026-05-29,09:09:23.900,8.30,100,76,0,-0.373,5.96,25,0.490,63,0,-0.203,99,100,172.02,-43.43,0.00,27,55.416900 12.873400,88,2026-05-29 09:09:23,0,-655,-132,-407,-430,1,45,0,321,0,0,-1,-1,-1,-1,-1,1,0,-1,-1,-1,1,183,276,-132,0,183,0,0,0,0,0,0,0,297,0,0,0,0,0,0,0,0,0,0,0,0,0,0,0,0,0,0,0,0,0,0,0,0,0,0,0,0,0,0,0,0,0,0,0,0,0,0,0,0,0,0,0,0,0,0,0,0,0,0,0,
2026-05-29,09:09:24.020,8.30,100,73,0,-0.353,5.96,25,0.503,62,0,-0.187,99,100,167.35,-28.34,0.00,12,55.416900 12.873300,92,2026-05-29 09:09:24,0,-710,-132,-338,-430,1,45,-1,322,0,0,-1,-1,-1,-1,-1,1,0,-1,-1,-1,1,156,306,-132,0,156,0,0,0,0,0,0,0,297,0,0,0,0,0,0,0,0,0,0,0,0,0,0,0,0,0,0,0,0,0,0,0,0,0,0,0,0,0,0,0,0,0,0,0,0,0,0,0,0,0,0,0,0,0,0,0,0,0,0,0,
2026-05-29,09:09:24.160,8.31,100,73,0,-0.337,5.94,25,0.441,59,0,-0.142,100,100,160.40,-12.73,0.00,12,55.416900 12.873300,92,2026-05-29 09:09:24,0,-752,-131,-301,-430,0,45,0,322,0,0,-1,-1,-1,-1,-1,1,0,-1,-1,-1,1,141,330,-131,0,141,0,0,0,0,0,0,0,297,0,0,0,0,0,0,0,0,0,0,0,0,0,0,0,0,0,0,0,0,0,0,0,0,0,0,0,0,0,0,0,0,0,0,0,0,0,0,0,0,0,0,0,0,0,0,0,0,0,0,0,
2026-05-29,09:09:24.270,8.31,100,73,0,-0.337,5.96,25,0.441,59,0,-0.142,100,100,160.40,-12.73,0.00,12,55.416900 12.873300,92,2026-05-29 09:09:24,0,-784,-131,-251,-429,1,46,-3,322,0,0,-1,-1,-1,-1,-1,1,0,-1,-1,-1,1,123,348,-131,0,123,0,0,0,0,0,0,0,298,0,0,0,0,0,0,0,0,0,0,0,0,0,0,0,0,0,0,0,0,0,0,0,0,0,0,0,0,0,0,0,0,0,0,0,0,0,0,0,0,0,0,0,0,0,0,0,0,0,0,0,
2026-05-29,09:09:24.390,8.31,100,73,0,-0.315,5.97,25,0.448,58,0,-0.113,100,100,152.65,3.66,0.00,17,55.416900 12.873300,92,2026-05-29 09:09:24,0,-777,-132,-205,-429,1,45,0,322,0,0,-1,-1,-1,-1,-1,1,0,-1,-1,-1,1,106,344,-132,0,106,0,0,0,0,0,0,0,298,0,0,0,0,0,0,0,0,0,0,0,0,0,0,0,0,0,0,0,0,0,0,0,0,0,0,0,0,0,0,0,0,0,0,0,0,0,0,0,0,0,0,0,0,0,0,0,0,0,0,0,
2026-05-29,09:09:24.500,8.31,100,74,0,-0.350,5.97,25,0.908,58,0,-0.085,100,100,143.96,20.87,0.00,17,55.416900 12.873300,92,2026-05-29 09:09:24,0,-721,-131,-119,-430,1,45,0,322,0,0,-1,-1,-1,-1,-1,1,0,-1,-1,-1,1,77,312,-131,0,77,0,0,0,0,0,0,0,297,0,0,0,0,0,0,0,0,0,0,0,0,0,0,0,0,0,0,0,0,0,0,0,0,0,0,0,0,0,0,0,0,0,0,0,0,0,0,0,0,0,0,0,0,0,0,0,0,0,0,0,
2026-05-29,09:09:24.610,8.31,100,74,0,-0.350,5.94,25,0.908,59,0,-0.085,100,100,143.96,20.87,0.00,17,55.416900 12.873300,92,2026-05-29 09:09:24,0,-679,-130,0,-430,0,46,-1,322,0,0,-1,-1,-1,-1,-1,1,0,-1,-1,-1,1,36,289,-130,0,36,0,0,0,0,0,0,0,297,0,0,0,0,0,0,0,0,0,0,0,0,0,0,0,0,0,0,0,0,0,0,0,0,0,0,0,0,0,0,0,0,0,0,0,0,0,0,0,0,0,0,0,0,0,0,0,0,0,0,0,
2026-05-29,09:09:24.730,8.30,100,74,0,-0.373,5.93,25,1.512,59,0,-0.022,100,100,130.67,37.22,0.00,17,55.416900 12.873300,92,2026-05-29 09:09:24,0,-779,-130,0,-430,0,45,0,322,0,0,-1,-1,-1,-1,-1,1,0,-1,-1,-1,1,36,346,-130,0,36,0,0,0,0,0,0,0,297,0,0,0,0,0,0,0,0,0,0,0,0,0,0,0,0,0,0,0,0,0,0,0,0,0,0,0,0,0,0,0,0,0,0,0,0,0,0,0,0,0,0,0,0,0,0,0,0,0,0,0,
2026-05-29,09:09:24.850,8.30,100,72,0,-0.238,5.92,25,1.762,60,0,0.051,100,100,115.95,48.30,0.00,17,55.416900 12.873300,92,2026-05-29 09:09:24,0,-695,-131,0,-429,0,46,0,322,0,0,-1,-1,-1,-1,-1,1,0,-1,-1,-1,1,36,298,-131,0,36,0,0,0,0,0,0,0,298,0,0,0,0,0,0,0,0,0,0,0,0,0,0,0,0,0,0,0,0,0,0,0,0,0,0,0,0,0,0,0,0,0,0,0,0,0,0,0,0,0,0,0,0,0,0,0,0,0,0,0,
2026-05-29,09:09:24.990,8.30,100,70,0,-0.183,5.92,25,1.893,61,0,0.083,100,100,96.13,54.18,0.00,21,55.416900 12.873300,95,2026-05-29 09:09:25,0,-726,-130,0,-429,0,46,0,322,0,0,-1,-1,-1,-1,-1,1,0,-1,-1,-1,1,36,315,-131,0,36,0,0,0,0,0,0,0,298,0,0,0,0,0,0,0,0,0,0,0,0,0,0,0,0,0,0,0,0,0,0,0,0,0,0,0,0,0,0,0,0,0,0,0,0,0,0,0,0,0,0,0,0,0,0,0,0,0,0,0,
2026-05-29,09:09:25.110,8.30,100,69,0,-0.183,5.91,25,1.893,62,0,0.083,100,100,96.13,54.18,0.00,21,55.416900 12.873300,95,2026-05-29 09:09:25,0,-716,-131,0,-430,0,46,0,321,0,0,-1,-1,-1,-1,-1,1,0,-1,-1,-1,1,36,310,-131,0,36,0,0,0,0,0,0,0,297,0,0,0,0,0,0,0,0,0,0,0,0,0,0,0,0,0,0,0,0,0,0,0,0,0,0,0,0,0,0,0,0,0,0,0,0,0,0,0,0,0,0,0,0,0,0,0,0,0,0,0,
2026-05-29,09:09:25.230,8.31,100,68,0,-0.109,5.91,25,1.637,63,0,0.062,100,100,78.05,55.37,0.00,21,55.416900 12.873300,95,2026-05-29 09:09:25,0,-685,-131,0,-429,0,46,0,322,0,0,-1,-1,-1,-1,-1,1,0,-1,-1,-1,1,36,292,-131,0,36,0,0,0,0,0,0,0,298,0,0,0,0,0,0,0,0,0,0,0,0,0,0,0,0,0,0,0,0,0,0,0,0,0,0,0,0,0,0,0,0,0,0,0,0,0,0,0,0,0,0,0,0,0,0,0,0,0,0,0,
2026-05-29,09:09:25.340,8.31,100,69,0,-0.063,5.91,25,1.827,65,0,0.081,100,100,61.74,53.37,0.00,21,55.416900 12.873300,95,2026-05-29 09:09:25,0,-704,-131,0,-429,2,46,0,322,0,0,-1,-1,-1,-1,-1,1,0,-1,-1,-1,1,36,302,-131,0,36,0,0,0,0,0,0,0,297,0,0,0,0,0,0,0,0,0,0,0,0,0,0,0,0,0,0,0,0,0,0,0,0,0,0,0,0,0,0,0,0,0,0,0,0,0,0,0,0,0,0,0,0,0,0,0,0,0,0,0,
2026-05-29,09:09:25.450,8.31,100,70,0,-0.063,5.90,25,1.827,66,0,0.081,100,100,61.74,53.37,0.00,5,55.416900 12.873300,95,2026-05-29 09:09:25,0,-704,-131,0,-430,0,46,0,322,0,0,-1,-1,-1,-1,-1,1,0,-1,-1,-1,1,36,302,-131,0,36,0,0,0,0,0,0,0,297,0,0,0,0,0,0,0,0,0,0,0,0,0,0,0,0,0,0,0,0,0,0,0,0,0,0,0,0,0,0,0,0,0,0,0,0,0,0,0,0,0,0,0,0,0,0,0,0,0,0,0,
2026-05-29,09:09:25.560,8.31,100,71,0,-0.100,5.90,25,2.273,68,0,0.126,100,100,50.18,48.89,0.00,5,55.416900 12.873300,95,2026-05-29 09:09:25,0,-792,-131,-6,-429,1,46,0,322,0,0,-1,-1,-1,-1,-1,1,0,-1,-1,-1,1,39,354,-131,0,39,0,0,0,0,0,0,0,298,0,0,0,0,0,0,0,0,0,0,0,0,0,0,0,0,0,0,0,0,0,0,0,0,0,0,0,0,0,0,0,0,0,0,0,0,0,0,0,0,0,0,0,0,0,0,0,0,0,0,0,
2026-05-29,09:09:25.670,8.31,100,72,0,-0.011,5.90,25,2.701,69,0,0.153,100,100,37.31,40.73,0.00,5,55.416900 12.873300,95,2026-05-29 09:09:25,0,-773,-131,0,-430,0,46,0,321,0,0,-1,-1,-1,-1,-1,1,0,-1,-1,-1,1,36,342,-131,0,36,0,0,0,0,0,0,0,297,0,0,0,0,0,0,0,0,0,0,0,0,0,0,0,0,0,0,0,0,0,0,0,0,0,0,0,0,0,0,0,0,0,0,0,0,0,0,0,0,0,0,0,0,0,0,0,0,0,0,0,
2026-05-29,09:09:25.810,8.31,100,74,0,0.016,5.90,25,2.590,70,0,0.153,100,100,37.31,40.73,0.00,5,55.416900 12.873300,95,2026-05-29 09:09:25,0,-686,-131,0,-430,1,45,0,322,0,0,-1,-1,-1,-1,-1,1,0,-1,-1,-1,1,36,293,-131,0,36,0,0,0,0,0,0,0,297,0,0,0,0,0,0,0,0,0,0,0,0,0,0,0,0,0,0,0,0,0,0,0,0,0,0,0,0,0,0,0,0,0,0,0,0,0,0,0,0,0,0,0,0,0,0,0,0,0,0,0,
2026-05-29,09:09:25.930,8.31,100,73,0,0.016,5.90,25,2.590,69,0,0.043,100,100,23.98,31.70,0.00,5,55.416900 12.873300,96,2026-05-29 09:09:25,0,-661,-131,7,-430,1,45,0,322,0,0,-1,-1,-1,-1,-1,1,0,-1,-1,-1,1,33,279,-131,0,33,0,0,0,0,0,0,0,297,0,0,0,0,0,0,0,0,0,0,0,0,0,0,0,0,0,0,0,0,0,0,0,0,0,0,0,0,0,0,0,0,0,0,0,0,0,0,0,0,0,0,0,0,0,0,0,0,0,0,0,
2026-05-29,09:09:26.060,8.31,100,72,0,0.053,5.90,25,2.190,68,0,0.000,100,100,16.04,26.03,0.00,24,55.416900 12.873300,96,2026-05-29 09:09:26,0,-549,-130,0,-429,2,46,-1,321,0,0,-1,-1,-1,-1,-1,1,0,-1,-1,-1,1,36,222,-131,0,36,0,0,0,0,0,0,0,298,0,0,0,0,0,0,0,0,0,0,0,0,0,0,0,0,0,0,0,0,0,0,0,0,0,0,0,0,0,0,0,0,0,0,0,0,0,0,0,0,0,0,0,0,0,0,0,0,0,0,0,
2026-05-29,09:09:26.200,8.31,100,68,0,0.062,5.90,25,1.963,67,0,0.034,100,100,15.67,22.15,0.00,24,55.416900 12.873300,96,2026-05-29 09:09:26,0,-458,-131,-255,-429,0,46,-7,322,0,0,-1,-1,-1,-1,-1,1,0,-1,-1,-1,1,125,181,-131,0,125,0,0,0,0,0,0,0,298,0,0,0,0,0,0,0,0,0,0,0,0,0,0,0,0,0,0,0,0,0,0,0,0,0,0,0,0,0,0,0,0,0,0,0,0,0,0,0,0,0,0,0,0,0,0,0,0,0,0,0,
2026-05-29,09:09:26.320,8.31,100,67,0,-0.196,5.90,25,2.396,66,0,-0.028,100,100,15.67,22.15,0.00,24,55.416900 12.873300,96,2026-05-29 09:09:26,0,-472,-131,-239,-430,0,45,0,322,0,0,-1,-1,-1,-1,-1,1,0,-1,-1,-1,1,119,188,-131,0,119,0,0,0,0,0,0,0,297,0,0,0,0,0,0,0,0,0,0,0,0,0,0,0,0,0,0,0,0,0,0,0,0,0,0,0,0,0,0,0,0,0,0,0,0,0,0,0,0,0,0,0,0,0,0,0,0,0,0,0,
2026-05-29,09:09:26.440,8.31,100,67,0,-0.196,5.90,25,2.396,65,0,-0.028,100,100,14.58,18.53,0.00,45,55.416900 12.873300,96,2026-05-29 09:09:26,0,-508,-131,-291,-429,0,46,0,322,0,0,-1,-1,-1,-1,-1,1,0,-1,-1,-1,1,138,203,-131,0,138,0,0,0,0,0,0,0,298,0,0,0,0,0,0,0,0,0,0,0,0,0,0,0,0,0,0,0,0,0,0,0,0,0,0,0,0,0,0,0,0,0,0,0,0,0,0,0,0,0,0,0,0,0,0,0,0,0,0,0,
2026-05-29,09:09:26.560,8.31,100,68,0,-0.246,5.90,25,2.864,63,0,-0.121,99,100,6.32,9.72,0.00,45,55.416900 12.873300,96,2026-05-29 09:09:26,0,-470,-131,-287,-430,0,45,0,322,0,0,-1,-1,-1,-1,-1,1,0,-1,-1,-1,1,136,186,-131,0,136,0,0,0,0,0,0,0,297,0,0,0,0,0,0,0,0,0,0,0,0,0,0,0,0,0,0,0,0,0,0,0,0,0,0,0,0,0,0,0,0,0,0,0,0,0,0,0,0,0,0,0,0,0,0,0,0,0,0,0,
2026-05-29,09:09:26.680,8.31,100,69,0,-0.112,5.90,25,2.886,60,0,-0.157,99,100,-0.57,-1.79,0.00,45,55.416900 12.873300,96,2026-05-29 09:09:26,0,-480,-131,-333,-430,1,46,-2,322,0,0,-1,-1,-1,-1,-1,1,0,-1,-1,-1,1,154,191,-131,0,154,0,0,0,0,0,0,0,297,0,0,0,0,0,0,0,0,0,0,0,0,0,0,0,0,0,0,0,0,0,0,0,0,0,0,0,0,0,0,0,0,0,0,0,0,0,0,0,0,0,0,0,0,0,0,0,0,0,0,0,
2026-05-29,09:09:26.810,8.31,100,70,0,-0.112,5.90,25,2.886,58,0,-0.157,99,100,-0.57,-1.79,0.00,45,55.416900 12.873300,96,2026-05-29 09:09:26,0,-461,-131,-410,-430,0,46,0,322,0,0,-1,-1,-1,-1,-1,1,0,-1,-1,-1,1,184,183,-131,0,184,0,0,0,0,0,0,0,297,0,0,0,0,0,0,0,0,0,0,0,0,0,0,0,0,0,0,0,0,0,0,0,0,0,0,0,0,0,0,0,0,0,0,0,0,0,0,0,0,0,0,0,0,0,0,0,0,0,0,0,
2026-05-29,09:09:26.950,8.31,100,69,0,-0.185,5.90,25,2.509,58,0,-0.137,99,100,-8.89,-9.51,0.00,61,55.417100 12.873300,91,2026-05-29 09:09:26,0,-403,-131,-495,-429,0,45,-1,322,0,0,-1,-1,-1,-1,-1,1,0,-1,-1,-1,1,220,158,-131,0,220,0,0,0,0,0,0,0,298,0,0,0,0,0,0,0,0,0,0,0,0,0,0,0,0,0,0,0,0,0,0,0,0,0,0,0,0,0,0,0,0,0,0,0,0,0,0,0,0,0,0,0,0,0,0,0,0,0,0,0,
2026-05-29,09:09:27.070,8.31,100,69,0,-0.226,5.90,25,2.071,58,0,-0.221,99,100,-21.54,-16.22,0.00,61,55.417100 12.873300,91,2026-05-29 09:09:27,0,-297,-130,-537,-429,0,45,-19,322,0,0,-1,-1,-1,-1,-1,1,0,-1,-1,-1,1,239,115,-130,0,239,0,0,0,0,0,0,0,298,0,0,0,0,0,0,0,0,0,0,0,0,0,0,0,0,0,0,0,0,0,0,0,0,0,0,0,0,0,0,0,0,0,0,0,0,0,0,0,0,0,0,0,0,0,0,0,0,0,0,0,
2026-05-29,09:09:27.200,8.31,100,67,0,-0.185,5.93,25,1.298,58,0,-0.308,99,100,-40.46,-20.42,0.00,61,55.417100 12.873300,91,2026-05-29 09:09:27,0,-283,-131,-392,-430,0,47,-3,322,0,0,-1,-1,-1,-1,-1,1,0,-1,-1,-1,1,177,109,-130,0,176,0,0,0,0,0,0,0,297,0,0,0,0,0,0,0,0,0,0,0,0,0,0,0,0,0,0,0,0,0,0,0,0,0,0,0,0,0,0,0,0,0,0,0,0,0,0,0,0,0,0,0,0,0,0,0,0,0,0,0,
2026-05-29,09:09:27.320,8.31,100,65,0,-0.163,5.92,25,1.298,59,0,-0.308,100,100,-40.46,-20.42,0.00,61,55.417100 12.873300,91,2026-05-29 09:09:27,0,-298,-131,-206,-429,0,47,-1,322,0,0,-1,-1,-1,-1,-1,1,0,-1,-1,-1,1,107,115,-131,0,107,0,0,0,0,0,0,0,298,0,0,0,0,0,0,0,0,0,0,0,0,0,0,0,0,0,0,0,0,0,0,0,0,0,0,0,0,0,0,0,0,0,0,0,0,0,0,0,0,0,0,0,0,0,0,0,0,0,0,0,
2026-05-29,09:09:27.440,8.31,100,65,0,-0.163,5.94,25,0.938,58,0,-0.322,100,100,-58.55,-21.53,0.00,62,55.417100 12.873300,91,2026-05-29 09:09:27,0,-358,-131,-129,-429,0,45,0,322,0,0,-1,-1,-1,-1,-1,1,0,-1,-1,-1,1,80,139,-131,0,80,0,0,0,0,0,0,0,298,0,0,0,0,0,0,0,0,0,0,0,0,0,0,0,0,0,0,0,0,0,0,0,0,0,0,0,0,0,0,0,0,0,0,0,0,0,0,0,0,0,0,0,0,0,0,0,0,0,0,0,
2026-05-29,09:09:27.560,8.31,100,66,0,-0.170,5.92,25,0.973,59,0,-0.313,100,100,-66.80,-20.73,0.00,62,55.417100 12.873300,91,2026-05-29 09:09:27,0,-426,-130,-83,-430,1,46,0,322,0,0,-1,-1,-1,-1,-1,1,0,-1,-1,-1,1,64,168,-130,0,64,0,0,0,0,0,0,0,297,0,0,0,0,0,0,0,0,0,0,0,0,0,0,0,0,0,0,0,0,0,0,0,0,0,0,0,0,0,0,0,0,0,0,0,0,0,0,0,0,0,0,0,0,0,0,0,0,0,0,0,
2026-05-29,09:09:27.680,8.31,100,67,0,-0.218,5.94,25,1.306,62,0,-0.275,100,100,-69.24,-19.43,0.00,62,55.417100 12.873300,91,2026-05-29 09:09:27,0,-453,-131,-25,-430,0,45,0,322,0,0,-1,-1,-1,-1,-1,1,0,-1,-1,-1,1,45,179,-131,0,45,0,0,0,0,0,0,0,297,0,0,0,0,0,0,0,0,0,0,0,0,0,0,0,0,0,0,0,0,0,0,0,0,0,0,0,0,0,0,0,0,0,0,0,0,0,0,0,0,0,0,0,0,0,0,0,0,0,0,0,
2026-05-29,09:09:27.800,8.31,100,67,0,-0.218,5.93,25,1.306,63,0,-0.275,100,100,-69.24,-19.43,0.00,62,55.417100 12.873300,91,2026-05-29 09:09:27,0,-484,-130,-24,-430,0,46,0,322,0,0,-1,-1,-1,-1,-1,1,0,-1,-1,-1,1,45,193,-130,0,45,0,0,0,0,0,0,0,297,0,0,0,0,0,0,0,0,0,0,0,0,0,0,0,0,0,0,0,0,0,0,0,0,0,0,0,0,0,0,0,0,0,0,0,0,0,0,0,0,0,0,0,0,0,0,0,0,0,0,0,
2026-05-29,09:09:27.910,8.31,100,68,0,-0.227,5.95,25,1.363,65,0,-0.308,100,100,-73.42,-18.58,0.00,62,55.417200 12.873300,91,2026-05-29 09:09:27,0,-482,-130,0,-430,0,45,-1,321,0,0,-1,-1,-1,-1,-1,1,0,-1,-1,-1,1,36,192,-130,0,36,0,0,0,0,0,0,0,297,0,0,0,0,0,0,0,0,0,0,0,0,0,0,0,0,0,0,0,0,0,0,0,0,0,0,0,0,0,0,0,0,0,0,0,0,0,0,0,0,0,0,0,0,0,0,0,0,0,0,0,
2026-05-29,09:09:28.030,8.31,100,68,0,-0.278,5.94,25,1.608,65,0,-0.283,100,100,-78.30,-16.75,0.00,62,55.417200 12.873300,94,2026-05-29 09:09:28,0,-487,-131,9,-430,0,45,-2,322,0,0,-1,-1,-1,-1,-1,1,0,-1,-1,-1,1,32,194,-131,0,32,0,0,0,0,0,0,0,297,0,0,0,0,0,0,0,0,0,0,0,0,0,0,0,0,0,0,0,0,0,0,0,0,0,0,0,0,0,0,0,0,0,0,0,0,0,0,0,0,0,0,0,0,0,0,0,0,0,0,0,
2026-05-29,09:09:28.150,8.31,100,69,0,-0.278,5.94,25,1.608,66,0,-0.283,100,100,-78.30,-16.75,0.00,62,55.417200 12.873300,94,2026-05-29 09:09:28,0,-468,-131,110,-430,1,45,-1,322,0,0,-1,-1,-1,-1,-1,1,0,-1,-1,-1,1,-4,186,-131,0,-4,0,0,0,0,0,0,0,297,0,0,0,0,0,0,0,0,0,0,0,0,0,0,0,0,0,0,0,0,0,0,0,0,0,0,0,0,0,0,0,0,0,0,0,0,0,0,0,0,0,0,0,0,0,0,0,0,0,0,0,
2026-05-29,09:09:28.260,8.31,100,69,0,-0.300,5.93,25,1.809,64,0,-0.238,100,100,-82.38,-13.85,0.00,62,55.417200 12.873300,94,2026-05-29 09:09:28,0,-451,-131,193,-429,0,45,0,321,0,0,-1,-1,-1,-1,-1,1,0,-1,-1,-1,1,-35,178,-131,0,-35,0,0,0,0,0,0,0,298,0,0,0,0,0,0,0,0,0,0,0,0,0,0,0,0,0,0,0,0,0,0,0,0,0,0,0,0,0,0,0,0,0,0,0,0,0,0,0,0,0,0,0,0,0,0,0,0,0,0,0,
2026-05-29,09:09:28.380,8.31,100,67,0,-0.267,5.95,25,1.811,64,0,-0.245,100,100,-81.78,-10.58,0.00,57,55.417200 12.873300,94,2026-05-29 09:09:28,0,-447,-131,221,-430,0,46,-1,322,0,0,-1,-1,-1,-1,-1,1,0,-1,-1,-1,1,-46,177,-131,0,-46,0,0,0,0,0,0,0,298,0,0,0,0,0,0,0,0,0,0,0,0,0,0,0,0,0,0,0,0,0,0,0,0,0,0,0,0,0,0,0,0,0,0,0,0,0,0,0,0,0,0,0,0,0,0,0,0,0,0,0,
2026-05-29,09:09:28.500,8.31,100,65,0,-0.251,5.96,25,1.811,64,0,-0.245,99,100,-81.78,-10.58,0.00,57,55.417200 12.873300,94,2026-05-29 09:09:28,0,-439,-131,202,-429,1,46,0,321,0,0,-1,-1,-1,-1,-1,1,0,-1,-1,-1,1,-39,173,-131,0,-39,0,0,0,0,0,0,0,298,0,0,0,0,0,0,0,0,0,0,0,0,0,0,0,0,0,0,0,0,0,0,0,0,0,0,0,0,0,0,0,0,0,0,0,0,0,0,0,0,0,0,0,0,0,0,0,0,0,0,0,
2026-05-29,09:09:28.610,8.31,100,63,0,-0.251,5.97,25,1.968,63,0,-0.197,99,100,-77.30,-7.73,0.00,57,55.417200 12.873300,94,2026-05-29 09:09:28,0,-414,-130,190,-430,0,46,0,322,0,0,-1,-1,-1,-1,-1,1,0,-1,-1,-1,1,-33,162,-130,0,-33,0,0,0,0,0,0,0,297,0,0,0,0,0,0,0,0,0,0,0,0,0,0,0,0,0,0,0,0,0,0,0,0,0,0,0,0,0,0,0,0,0,0,0,0,0,0,0,0,0,0,0,0,0,0,0,0,0,0,0,
2026-05-29,09:09:28.720,8.31,100,60,0,-0.280,5.98,25,2.144,61,0,-0.147,99,100,-72.25,-5.87,0.00,57,55.417200 12.873300,94,2026-05-29 09:09:28,0,-396,-130,0,-430,0,45,-1,322,0,0,-1,-1,-1,-1,-1,1,0,-1,-1,-1,1,36,155,-130,0,36,0,0,0,0,0,0,0,297,0,0,0,0,0,0,0,0,0,0,0,0,0,0,0,0,0,0,0,0,0,0,0,0,0,0,0,0,0,0,0,0,0,0,0,0,0,0,0,0,0,0,0,0,0,0,0,0,0,0,0,
2026-05-29,09:09:28.840,8.31,100,55,0,-0.248,5.99,25,2.144,61,0,-0.147,99,100,-72.25,-5.87,0.00,57,55.417200 12.873300,94,2026-05-29 09:09:28,0,-441,-131,-50,-430,0,46,-1,322,0,0,-1,-1,-1,-1,-1,1,0,-1,-1,-1,1,53,174,-131,0,53,0,0,0,0,0,0,0,297,0,0,0,0,0,0,0,0,0,0,0,0,0,0,0,0,0,0,0,0,0,0,0,0,0,0,0,0,0,0,0,0,0,0,0,0,0,0,0,0,0,0,0,0,0,0,0,0,0,0,0,
2026-05-29,09:09:28.960,8.31,100,56,0,-0.248,5.99,25,2.185,62,0,-0.220,99,100,-68.27,-5.50,0.00,37,55.417300 12.873200,96,2026-05-29 09:09:28,0,-453,-131,-69,-429,0,46,-5,322,0,0,-1,-1,-1,-1,-1,1,0,-1,-1,-1,1,60,179,-131,0,60,0,0,0,0,0,0,0,298,0,0,0,0,0,0,0,0,0,0,0,0,0,0,0,0,0,0,0,0,0,0,0,0,0,0,0,0,0,0,0,0,0,0,0,0,0,0,0,0,0,0,0,0,0,0,0,0,0,0,0,
2026-05-29,09:09:29.070,8.31,100,57,0,-0.210,5.99,25,2.072,62,0,-0.210,99,100,-68.59,-5.87,0.00,37,55.417300 12.873200,96,2026-05-29 09:09:29,0,-452,-131,-95,-429,0,46,0,322,0,0,-1,-1,-1,-1,-1,1,0,-1,-1,-1,1,69,179,-131,0,69,0,0,0,0,0,0,0,298,0,0,0,0,0,0,0,0,0,0,0,0,0,0,0,0,0,0,0,0,0,0,0,0,0,0,0,0,0,0,0,0,0,0,0,0,0,0,0,0,0,0,0,0,0,0,0,0,0,0,0,
2026-05-29,09:09:29.190,8.31,100,57,0,-0.204,5.97,25,2.183,62,0,-0.278,99,100,-71.43,-6.24,0.00,37,55.417300 12.873200,96,2026-05-29 09:09:29,0,-392,-130,0,-430,0,45,0,321,0,0,-1,-1,-1,-1,-1,1,0,-1,-1,-1,1,36,153,-130,0,36,0,0,0,0,0,0,0,297,0,0,0,0,0,0,0,0,0,0,0,0,0,0,0,0,0,0,0,0,0,0,0,0,0,0,0,0,0,0,0,0,0,0,0,0,0,0,0,0,0,0,0,0,0,0,0,0,0,0,0,
2026-05-29,09:09:29.310,8.31,100,56,0,-0.204,5.98,25,2.183,62,0,-0.278,99,100,-71.43,-6.24,0.00,37,55.417300 12.873200,96,2026-05-29 09:09:29,0,-355,-131,0,-430,0,46,0,322,0,0,-1,-1,-1,-1,-1,1,0,-1,-1,-1,1,36,138,-131,0,36,0,0,0,0,0,0,0,297,0,0,0,0,0,0,0,0,0,0,0,0,0,0,0,0,0,0,0,0,0,0,0,0,0,0,0,0,0,0,0,0,0,0,0,0,0,0,0,0,0,0,0,0,0,0,0,0,0,0,0,
2026-05-29,09:09:29.420,8.31,100,56,0,-0.192,5.98,25,2.174,61,0,-0.293,100,100,-72.64,-5.90,0.00,30,55.417300 12.873200,96,2026-05-29 09:09:29,0,-322,-131,161,-430,1,46,0,322,0,0,-1,-1,-1,-1,-1,1,0,-1,-1,-1,1,-23,125,-131,0,-23,0,0,0,0,0,0,0,297,0,0,0,0,0,0,0,0,0,0,0,0,0,0,0,0,0,0,0,0,0,0,0,0,0,0,0,0,0,0,0,0,0,0,0,0,0,0,0,0,0,0,0,0,0,0,0,0,0,0,0,
2026-05-29,09:09:29.560,8.31,100,54,0,-0.169,5.99,25,2.061,58,0,-0.211,100,100,-73.25,-4.28,0.00,30,55.417300 12.873200,96,2026-05-29 09:09:29,0,-244,-130,167,-430,0,47,0,322,0,0,-1,-1,-1,-1,-1,1,0,-1,-1,-1,1,-25,95,-130,0,-25,0,0,0,0,0,0,0,297,0,0,0,0,0,0,0,0,0,0,0,0,0,0,0,0,0,0,0,0,0,0,0,0,0,0,0,0,0,0,0,0,0,0,0,0,0,0,0,0,0,0,0,0,0,0,0,0,0,0,0,
2026-05-29,09:09:29.690,8.31,100,52,0,-0.103,5.99,25,2.061,57,0,-0.211,100,100,-73.25,-4.28,0.00,30,55.417300 12.873200,96,2026-05-29 09:09:29,0,-184,-130,215,-429,0,46,0,322,0,0,-1,-1,-1,-1,-1,1,0,-1,-1,-1,1,-44,72,-130,0,-44,0,0,0,0,0,0,0,298,0,0,0,0,0,0,0,0,0,0,0,0,0,0,0,0,0,0,0,0,0,0,0,0,0,0,0,0,0,0,0,0,0,0,0,0,0,0,0,0,0,0,0,0,0,0,0,0,0,0,0,
2026-05-29,09:09:29.800,8.31,100,52,0,-0.103,5.97,25,1.664,55,0,-0.186,100,100,-69.30,-2.22,0.00,30,55.417300 12.873200,96,2026-05-29 09:09:29,0,-129,-130,246,-430,2,45,-2,322,0,0,-1,-1,-1,-1,-1,1,0,-1,-1,-1,1,-56,54,-130,0,-56,0,0,0,0,0,0,0,297,0,0,0,0,0,0,0,0,0,0,0,0,0,0,0,0,0,0,0,0,0,0,0,0,0,0,0,0,0,0,0,0,0,0,0,0,0,0,0,0,0,0,0,0,0,0,0,0,0,0,0,
2026-05-29,09:09:29.920,8.31,100,53,0,-0.068,5.98,25,1.560,54,0,-0.122,100,100,-63.90,-1.02,0.00,30,55.417300 12.873100,96,2026-05-29 09:09:29,0,-89,-130,327,-429,0,45,0,322,0,0,-1,-1,-1,-1,-1,1,0,-1,-1,-1,1,-88,40,-130,0,-88,0,0,0,0,0,0,0,298,0,0,0,0,0,0,0,0,0,0,0,0,0,0,0,0,0,0,0,0,0,0,0,0,0,0,0,0,0,0,0,0,0,0,0,0,0,0,0,0,0,0,0,0,0,0,0,0,0,0,0,
2026-05-29,09:09:30.030,8.31,100,56,0,-0.032,5.97,25,1.560,53,0,-0.066,100,100,-63.90,-1.02,0.00,33,55.417300 12.873100,97,2026-05-29 09:09:30,0,-80,-130,350,-430,1,46,-2,321,0,0,-1,-1,-1,-1,-1,1,0,-1,-1,-1,1,-98,36,-130,0,-98,0,0,0,0,0,0,0,297,0,0,0,0,0,0,0,0,0,0,0,0,0,0,0,0,0,0,0,0,0,0,0,0,0,0,0,0,0,0,0,0,0,0,0,0,0,0,0,0,0,0,0,0,0,0,0,0,0,0,0,
2026-05-29,09:09:30.140,8.31,100,58,0,-0.032,5.98,25,1.344,50,0,-0.066,100,100,-56.01,-0.13,0.00,33,55.417300 12.873100,97,2026-05-29 09:09:30,0,-61,-130,349,-430,0,46,0,322,0,0,-1,-1,-1,-1,-1,1,0,-1,-1,-1,1,-98,30,-130,0,-98,0,0,0,0,0,0,0,297,0,0,0,0,0,0,0,0,0,0,0,0,0,0,0,0,0,0,0,0,0,0,0,0,0,0,0,0,0,0,0,0,0,0,0,0,0,0,0,0,0,0,0,0,0,0,0,0,0,0,0,
2026-05-29,09:09:30.260,8.31,100,58,0,-0.025,5.98,25,1.342,50,0,-0.037,100,100,-44.37,0.09,0.00,33,55.417300 12.873100,97,2026-05-29 09:09:30,0,0,-130,321,-429,1,45,0,322,0,0,-1,-1,-1,-1,-1,1,0,-1,-1,-1,1,-85,8,-130,0,-85,0,0,0,0,0,0,0,298,0,0,0,0,0,0,0,0,0,0,0,0,0,0,0,0,0,0,0,0,0,0,0,0,0,0,0,0,0,0,0,0,0,0,0,0,0,0,0,0,0,0,0,0,0,0,0,0,0,0,0,
2026-05-29,09:09:30.400,8.31,100,57,0,-0.021,5.96,25,1.083,49,0,0.024,99,100,-34.32,-0.01,0.00,46,55.417300 12.873100,97,2026-05-29 09:09:30,0,30,-130,287,-430,0,46,0,322,0,0,-1,-1,-1,-1,-1,1,0,-1,-1,-1,1,-72,-3,-130,0,-72,0,0,0,0,0,0,0,297,0,0,0,0,0,0,0,0,0,0,0,0,0,0,0,0,0,0,0,0,0,0,0,0,0,0,0,0,0,0,0,0,0,0,0,0,0,0,0,0,0,0,0,0,0,0,0,0,0,0,0,
2026-05-29,09:09:30.520,8.31,100,56,0,-0.021,5.98,25,1.083,49,0,0.024,99,100,-34.32,-0.01,0.00,46,55.417300 12.873100,97,2026-05-29 09:09:30,0,100,-127,266,-429,0,46,0,322,0,0,-1,-1,-1,-1,-1,1,0,-1,-1,-1,1,-63,-27,-127,0,-63,0,0,0,0,0,0,0,298,0,0,0,0,0,0,0,0,0,0,0,0,0,0,0,0,0,0,0,0,0,0,0,0,0,0,0,0,0,0,0,0,0,0,0,0,0,0,0,0,0,0,0,0,0,0,0,0,0,0,0,
2026-05-29,09:09:30.660,8.31,100,57,0,0.027,5.98,25,1.074,53,0,0.025,99,100,-25.78,0.46,0.00,46,55.417300 12.873100,97,2026-05-29 09:09:30,0,62,-127,229,-430,0,46,0,322,0,0,-1,-1,-1,-1,-1,1,0,-1,-1,-1,1,-49,-14,-127,0,-49,0,0,0,0,0,0,0,297,0,0,0,0,0,0,0,0,0,0,0,0,0,0,0,0,0,0,0,0,0,0,0,0,0,0,0,0,0,0,0,0,0,0,0,0,0,0,0,0,0,0,0,0,0,0,0,0,0,0,0,
2026-05-29,09:09:30.780,8.31,100,57,0,0.055,5.96,25,0.625,53,0,0.010,99,100,-16.28,1.66,0.00,46,55.417300 12.873100,97,2026-05-29 09:09:30,0,0,-126,181,-430,0,46,-1,322,0,0,-1,-1,-1,-1,-1,1,0,-1,-1,-1,1,-30,8,-126,0,-30,0,0,0,0,0,0,0,297,0,0,0,0,0,0,0,0,0,0,0,0,0,0,0,0,0,0,0,0,0,0,0,0,0,0,0,0,0,0,0,0,0,0,0,0,0,0,0,0,0,0,0,0,0,0,0,0,0,0,0,
2026-05-29,09:09:30.900,8.31,100,58,0,0.058,5.95,25,0.606,55,0,0.017,99,100,-9.21,2.97,0.00,46,55.417100 12.873100,97,2026-05-29 09:09:30,0,-37,-127,130,-430,1,46,0,321,0,0,-1,-1,-1,-1,-1,1,0,-1,-1,-1,1,-11,28,-127,0,-11,0,0,0,0,0,0,0,298,0,0,0,0,0,0,0,0,0,0,0,0,0,0,0,0,0,0,0,0,0,0,0,0,0,0,0,0,0,0,0,0,0,0,0,0,0,0,0,0,0,0,0,0,0,0,0,0,0,0,0,
2026-05-29,09:09:31.020,8.31,100,60,0,0.058,5.93,25,0.606,55,0,0.017,99,100,-9.21,2.97,0.00,54,55.417100 12.873100,93,2026-05-29 09:09:31,0,-94,-126,0,-429,0,45,0,322,0,0,-1,-1,-1,-1,-1,1,0,-1,-1,-1,1,36,41,-126,0,36,0,0,0,0,0,0,0,298,0,0,0,0,0,0,0,0,0,0,0,0,0,0,0,0,0,0,0,0,0,0,0,0,0,0,0,0,0,0,0,0,0,0,0,0,0,0,0,0,0,0,0,0,0,0,0,0,0,0,0,
2026-05-29,09:09:31.140,8.31,100,61,0,0.052,5.94,25,0.864,55,0,0.066,100,100,-4.39,3.27,0.00,54,55.417100 12.873100,93,2026-05-29 09:09:31,0,-232,-127,-194,-430,0,46,0,322,0,0,-1,-1,-1,-1,-1,1,0,-1,-1,-1,1,103,90,-127,0,103,0,0,0,0,0,0,0,297,0,0,0,0,0,0,0,0,0,0,0,0,0,0,0,0,0,0,0,0,0,0,0,0,0,0,0,0,0,0,0,0,0,0,0,0,0,0,0,0,0,0,0,0,0,0,0,0,0,0,0,
2026-05-29,09:09:31.260,8.30,100,61,0,-0.023,5.93,25,1.606,55,0,0.045,99,100,-6.96,1.32,0.00,54,55.417100 12.873100,93,2026-05-29 09:09:31,0,-278,-127,-637,-430,0,45,0,321,0,0,-1,-1,-1,-1,-1,1,0,-1,-1,-1,1,288,99,-127,0,288,0,0,0,0,0,0,0,298,0,0,0,0,0,0,0,0,0,0,0,0,0,0,0,0,0,0,0,0,0,0,0,0,0,0,0,0,0,0,0,0,0,0,0,0,0,0,0,0,0,0,0,0,0,0,0,0,0,0,0,
2026-05-29,09:09:31.370,8.31,100,63,0,-0.056,5.93,25,1.606,54,0,0.045,99,100,-6.96,1.32,0.00,54,55.417100 12.873100,93,2026-05-29 09:09:31,0,-283,-127,-920,-429,0,46,0,322,0,0,-1,-1,-1,-1,-1,1,0,-1,-1,-1,1,454,110,-127,0,454,0,0,0,0,0,0,0,298,0,0,0,0,0,0,0,0,0,0,0,0,0,0,0,0,0,0,0,0,0,0,0,0,0,0,0,0,0,0,0,0,0,0,0,0,0,0,0,0,0,0,0,0,0,0,0,0,0,0,0,
2026-05-29,09:09:31.490,8.30,100,62,0,-0.056,5.92,25,2.116,54,0,-0.080,99,100,-17.33,-3.62,0.00,57,55.417100 12.873100,93,2026-05-29 09:09:31,0,-414,-126,-1023,-429,0,45,0,322,0,0,-1,-1,-1,-1,-1,1,0,-1,-1,-1,1,530,162,-126,0,530,0,0,0,0,0,0,0,298,0,0,0,0,0,0,0,0,0,0,0,0,0,0,0,0,0,0,0,0,0,0,0,0,0,0,0,0,0,0,0,0,0,0,0,0,0,0,0,0,0,0,0,0,0,0,0,0,0,0,0,
2026-05-29,09:09:31.640,8.30,100,61,0,0.130,5.89,25,1.498,53,0,-0.474,99,100,-58.05,-8.49,0.00,57,55.417100 12.873100,93,2026-05-29 09:09:31,0,-387,-126,-1024,-429,0,45,-4,322,0,0,-1,-1,-1,-1,-1,1,0,-1,-1,-1,1,530,151,-126,0,530,0,0,0,0,0,0,0,298,0,0,0,0,0,0,0,0,0,0,0,0,0,0,0,0,0,0,0,0,0,0,0,0,0,0,0,0,0,0,0,0,0,0,0,0,0,0,0,0,0,0,0,0,0,0,0,0,0,0,0,
2026-05-29,09:09:31.750,8.30,100,62,0,0.118,5.89,25,0.311,52,0,-0.535,99,100,-125.33,-6.05,0.00,57,55.417100 12.873100,93,2026-05-29 09:09:31,0,-362,-126,-1022,-429,0,45,-2,322,0,0,-1,-1,-1,-1,-1,1,0,-1,-1,-1,1,529,141,-126,0,529,0,0,0,0,0,0,0,298,0,0,0,0,0,0,0,0,0,0,0,0,0,0,0,0,0,0,0,0,0,0,0,0,0,0,0,0,0,0,0,0,0,0,0,0,0,0,0,0,0,0,0,0,0,0,0,0,0,0,0,
2026-05-29,09:09:31.870,8.30,100,65,0,0.118,5.89,25,0.311,52,0,-0.535,99,100,-125.33,-6.05,0.00,57,55.417000 12.873100,93,2026-05-29 09:09:31,0,-356,-127,-998,-430,1,46,-4,322,0,0,-1,-1,-1,-1,-1,1,0,-1,-1,-1,1,511,138,-127,0,511,0,0,0,0,0,0,0,297,0,0,0,0,0,0,0,0,0,0,0,0,0,0,0,0,0,0,0,0,0,0,0,0,0,0,0,0,0,0,0,0,0,0,0,0,0,0,0,0,0,0,0,0,0,0,0,0,0,0,0,
2026-05-29,09:09:31.990,8.30,100,69,0,0.139,5.92,25,0.217,52,0,-0.145,98,100,113.35,3.88,0.00,59,55.417000 12.873100,88,2026-05-29 09:09:32,0,-234,-126,-846,-430,0,45,0,322,0,0,-1,-1,-1,-1,-1,1,0,-1,-1,-1,1,392,91,-127,0,392,0,0,0,0,0,0,0,297,0,0,0,0,0,0,0,0,0,0,0,0,0,0,0,0,0,0,0,0,0,0,0,0,0,0,0,0,0,0,0,0,0,0,0,0,0,0,0,0,0,0,0,0,0,0,0,0,0,0,0,
2026-05-29,09:09:32.120,8.30,100,71,0,0.076,5.94,25,0.702,53,0,-0.040,98,100,103.21,9.02,0.00,59,55.417000 12.873100,88,2026-05-29 09:09:32,0,-149,-126,-677,-429,0,46,0,322,0,0,-1,-1,-1,-1,-1,1,0,-1,-1,-1,1,307,61,-126,0,307,0,0,0,0,0,0,0,298,0,0,0,0,0,0,0,0,0,0,0,0,0,0,0,0,0,0,0,0,0,0,0,0,0,0,0,0,0,0,0,0,0,0,0,0,0,0,0,0,0,0,0,0,0,0,0,0,0,0,0,
2026-05-29,09:09:32.240,8.30,100,73,0,0.050,5.96,25,0.870,52,0,0.000,98,100,60.02,10.13,0.00,59,55.417000 12.873100,88,2026-05-29 09:09:32,0,-53,-127,-485,-429,0,45,-1,321,0,0,-1,-1,-1,-1,-1,1,0,-1,-1,-1,1,215,27,-127,0,215,0,0,0,0,0,0,0,298,0,0,0,0,0,0,0,0,0,0,0,0,0,0,0,0,0,0,0,0,0,0,0,0,0,0,0,0,0,0,0,0,0,0,0,0,0,0,0,0,0,0,0,0,0,0,0,0,0,0,0,
2026-05-29,09:09:32.360,8.30,100,73,0,0.050,5.94,25,0.870,51,0,0.000,97,100,60.02,10.13,0.00,59,55.417000 12.873100,88,2026-05-29 09:09:32,0,-48,-126,-501,-430,0,46,0,322,0,0,-1,-1,-1,-1,-1,1,0,-1,-1,-1,1,222,26,-126,0,222,0,0,0,0,0,0,0,297,0,0,0,0,0,0,0,0,0,0,0,0,0,0,0,0,0,0,0,0,0,0,0,0,0,0,0,0,0,0,0,0,0,0,0,0,0,0,0,0,0,0,0,0,0,0,0,0,0,0,0,
2026-05-29,09:09:32.470,8.30,100,73,0,0.054,5.93,25,1.001,51,0,0.077,97,100,35.09,9.63,0.00,60,55.417000 12.873100,88,2026-05-29 09:09:32,0,-57,-127,-502,-430,0,46,-1,321,0,0,-1,-1,-1,-1,-1,1,0,-1,-1,-1,1,223,28,-127,0,223,0,0,0,0,0,0,0,297,0,0,0,0,0,0,0,0,0,0,0,0,0,0,0,0,0,0,0,0,0,0,0,0,0,0,0,0,0,0,0,0,0,0,0,0,0,0,0,0,0,0,0,0,0,0,0,0,0,0,0,
2026-05-29,09:09:32.590,8.31,100,73,0,0.026,5.96,25,1.453,52,0,0.061,97,100,14.00,8.93,0.00,60,55.417000 12.873100,88,2026-05-29 09:09:32,0,0,-127,-438,-429,0,46,-1,321,0,0,-1,-1,-1,-1,-1,1,0,-1,-1,-1,1,196,8,-127,0,196,0,0,0,0,0,0,0,298,0,0,0,0,0,0,0,0,0,0,0,0,0,0,0,0,0,0,0,0,0,0,0,0,0,0,0,0,0,0,0,0,0,0,0,0,0,0,0,0,0,0,0,0,0,0,0,0,0,0,0,
2026-05-29,09:09:32.700,8.31,100,72,0,0.026,5.95,25,1.453,55,0,0.061,97,100,14.00,8.93,0.00,60,55.417000 12.873100,88,2026-05-29 09:09:32,0,0,-127,-314,-430,0,46,0,321,0,0,-1,-1,-1,-1,-1,1,0,-1,-1,-1,1,146,8,-127,0,146,0,0,0,0,0,0,0,297,0,0,0,0,0,0,0,0,0,0,0,0,0,0,0,0,0,0,0,0,0,0,0,0,0,0,0,0,0,0,0,0,0,0,0,0,0,0,0,0,0,0,0,0,0,0,0,0,0,0,0,
2026-05-29,09:09:32.810,8.31,100,71,0,0.071,5.93,25,1.165,56,0,0.012,97,100,-4.11,8.29,0.00,60,55.417000 12.873100,88,2026-05-29 09:09:32,0,0,-127,-237,-430,0,46,-6,322,0,0,-1,-1,-1,-1,-1,1,0,-1,-1,-1,1,118,8,-127,0,118,0,0,0,0,0,0,0,297,0,0,0,0,0,0,0,0,0,0,0,0,0,0,0,0,0,0,0,0,0,0,0,0,0,0,0,0,0,0,0,0,0,0,0,0,0,0,0,0,0,0,0,0,0,0,0,0,0,0,0,
2026-05-29,09:09:32.930,8.31,100,71,0,0.095,5.95,25,1.143,58,0,-0.039,97,100,-16.59,8.05,0.00,60,55.416800 12.873100,79,2026-05-29 09:09:32,0,0,-126,-194,-430,0,46,-1,322,0,0,-1,-1,-1,-1,-1,1,0,-1,-1,-1,1,103,8,-126,0,103,0,0,0,0,0,0,0,297,0,0,0,0,0,0,0,0,0,0,0,0,0,0,0,0,0,0,0,0,0,0,0,0,0,0,0,0,0,0,0,0,0,0,0,0,0,0,0,0,0,0,0,0,0,0,0,0,0,0,0,
2026-05-29,09:09:33.050,8.31,100,70,0,0.095,5.94,25,1.143,58,0,-0.039,97,100,-16.59,8.05,0.00,68,55.416800 12.873100,79,2026-05-29 09:09:33,0,0,-126,0,-430,3,46,0,322,0,0,-1,-1,-1,-1,-1,1,0,-1,-1,-1,1,36,8,-126,0,36,0,0,0,0,0,0,0,297,0,0,0,0,0,0,0,0,0,0,0,0,0,0,0,0,0,0,0,0,0,0,0,0,0,0,0,0,0,0,0,0,0,0,0,0,0,0,0,0,0,0,0,0,0,0,0,0,0,0,0,
2026-05-29,09:09:33.170,8.30,100,71,0,0.101,5.97,25,1.060,59,0,-0.031,98,100,-23.07,7.89,0.00,68,55.416800 12.873100,79,2026-05-29 09:09:33,0,0,-126,0,-430,0,45,0,322,0,0,-1,-1,-1,-1,-1,1,0,-1,-1,-1,1,36,8,-126,0,36,0,0,0,0,0,0,0,297,0,0,0,0,0,0,0,0,0,0,0,0,0,0,0,0,0,0,0,0,0,0,0,0,0,0,0,0,0,0,0,0,0,0,0,0,0,0,0,0,0,0,0,0,0,0,0,0,0,0,0,
2026-05-29,09:09:33.280,8.30,100,71,0,0.125,5.95,25,0.957,59,0,-0.013,98,100,-24.27,7.73,0.00,68,55.416800 12.873100,79,2026-05-29 09:09:33,0,0,-127,0,-430,1,46,0,322,0,0,-1,-1,-1,-1,-1,1,0,-1,-1,-1,1,36,8,-127,0,36,0,0,0,0,0,0,0,297,0,0,0,0,0,0,0,0,0,0,0,0,0,0,0,0,0,0,0,0,0,0,0,0,0,0,0,0,0,0,0,0,0,0,0,0,0,0,0,0,0,0,0,0,0,0,0,0,0,0,0,
2026-05-29,09:09:33.430,8.30,100,72,0,0.122,5.96,25,1.060,60,0,-0.056,99,100,-22.95,7.41,0.00,66,55.416800 12.873100,79,2026-05-29 09:09:33,0,0,-127,0,-430,0,45,0,321,0,0,-1,-1,-1,-1,-1,1,0,-1,-1,-1,1,36,8,-127,0,36,0,0,0,0,0,0,0,297,0,0,0,0,0,0,0,0,0,0,0,0,0,0,0,0,0,0,0,0,0,0,0,0,0,0,0,0,0,0,0,0,0,0,0,0,0,0,0,0,0,0,0,0,0,0,0,0,0,0,0,
2026-05-29,09:09:33.540,8.30,100,71,0,0.122,5.97,25,1.060,61,0,-0.056,99,100,-22.95,7.41,0.00,66,55.416800 12.873100,79,2026-05-29 09:09:33,0,-177,-127,0,-430,0,46,0,322,0,0,-1,-1,-1,-1,-1,1,0,-1,-1,-1,1,36,70,-127,0,36,0,0,0,0,0,0,0,297,0,0,0,0,0,0,0,0,0,0,0,0,0,0,0,0,0,0,0,0,0,0,0,0,0,0,0,0,0,0,0,0,0,0,0,0,0,0,0,0,0,0,0,0,0,0,0,0,0,0,0,
2026-05-29,09:09:33.670,8.30,100,70,0,0.115,5.98,25,1.068,62,0,-0.020,99,100,-21.92,7.18,0.00,66,55.416800 12.873100,79,2026-05-29 09:09:33,0,-198,-127,-12,-429,0,46,0,322,0,0,-1,-1,-1,-1,-1,1,0,-1,-1,-1,1,41,78,-127,0,41,0,0,0,0,0,0,0,298,0,0,0,0,0,0,0,0,0,0,0,0,0,0,0,0,0,0,0,0,0,0,0,0,0,0,0,0,0,0,0,0,0,0,0,0,0,0,0,0,0,0,0,0,0,0,0,0,0,0,0,
2026-05-29,09:09:33.790,8.31,100,70,0,0.070,5.96,25,1.885,61,0,0.001,100,100,-21.70,4.26,0.00,66,55.416800 12.873100,79,2026-05-29 09:09:33,0,-271,-127,-16,-430,0,46,0,321,0,0,-1,-1,-1,-1,-1,1,0,-1,-1,-1,1,42,105,-127,0,42,0,0,0,0,0,0,0,297,0,0,0,0,0,0,0,0,0,0,0,0,0,0,0,0,0,0,0,0,0,0,0,0,0,0,0,0,0,0,0,0,0,0,0,0,0,0,0,0,0,0,0,0,0,0,0,0,0,0,0,
2026-05-29,09:09:33.900,8.31,100,69,0,0.051,5.97,25,1.885,62,0,0.001,100,100,-21.70,4.26,0.00,66,55.416700 12.873100,79,2026-05-29 09:09:33,0,-223,-127,0,-430,1,46,0,321,0,0,-1,-1,-1,-1,-1,1,0,-1,-1,-1,1,36,87,-127,0,36,0,0,0,0,0,0,0,297,0,0,0,0,0,0,0,0,0,0,0,0,0,0,0,0,0,0,0,0,0,0,0,0,0,0,0,0,0,0,0,0,0,0,0,0,0,0,0,0,0,0,0,0,0,0,0,0,0,0,0,
2026-05-29,09:09:34.020,8.31,100,69,0,0.051,5.96,25,2.103,62,0,-0.039,100,100,-21.91,-0.51,0.00,68,55.416700 12.873100,71,2026-05-29 09:09:34,0,-193,-127,0,-430,1,45,0,322,0,0,-1,-1,-1,-1,-1,1,0,-1,-1,-1,1,36,76,-127,0,36,0,0,0,0,0,0,0,297,0,0,0,0,0,0,0,0,0,0,0,0,0,0,0,0,0,0,0,0,0,0,0,0,0,0,0,0,0,0,0,0,0,0,0,0,0,0,0,0,0,0,0,0,0,0,0,0,0,0,0,
2026-05-29,09:09:34.140,8.31,100,67,0,0.022,5.97,25,2.263,64,0,-0.039,100,100,-21.74,-5.84,0.00,68,55.416700 12.873100,71,2026-05-29 09:09:34,0,-240,-127,0,-430,0,46,0,322,0,0,-1,-1,-1,-1,-1,1,0,-1,-1,-1,1,36,93,-126,0,36,0,0,0,0,0,0,0,297,0,0,0,0,0,0,0,0,0,0,0,0,0,0,0,0,0,0,0,0,0,0,0,0,0,0,0,0,0,0,0,0,0,0,0,0,0,0,0,0,0,0,0,0,0,0,0,0,0,0,0,
2026-05-29,09:09:34.260,8.30,100,67,0,-0.009,5.98,25,2.257,66,0,-0.082,100,100,-21.15,-10.73,0.00,68,55.416700 12.873100,71,2026-05-29 09:09:34,0,0,-127,0,-430,0,46,0,322,0,0,-1,-1,-1,-1,-1,1,0,-1,-1,-1,1,36,8,-127,0,36,0,0,0,0,0,0,0,297,0,0,0,0,0,0,0,0,0,0,0,0,0,0,0,0,0,0,0,0,0,0,0,0,0,0,0,0,0,0,0,0,0,0,0,0,0,0,0,0,0,0,0,0,0,0,0,0,0,0,0,
2026-05-29,09:09:34.370,8.30,100,66,0,-0.009,5.96,25,2.257,67,0,-0.082,100,100,-21.15,-10.73,0.00,68,55.416700 12.873100,71,2026-05-29 09:09:34,0,0,-127,0,-429,0,45,-1,322,0,0,-1,-1,-1,-1,-1,1,0,-1,-1,-1,1,36,8,-127,0,36,0,0,0,0,0,0,0,298,0,0,0,0,0,0,0,0,0,0,0,0,0,0,0,0,0,0,0,0,0,0,0,0,0,0,0,0,0,0,0,0,0,0,0,0,0,0,0,0,0,0,0,0,0,0,0,0,0,0,0,
2026-05-29,09:09:34.480,8.30,100,65,0,0.045,5.97,25,1.627,68,0,-0.036,100,100,-21.14,-14.03,0.00,72,55.416700 12.873100,71,2026-05-29 09:09:34,0,0,-126,0,-429,0,46,0,322,0,0,-1,-1,-1,-1,-1,1,0,-1,-1,-1,1,36,8,-126,0,36,0,0,0,0,0,0,0,298,0,0,0,0,0,0,0,0,0,0,0,0,0,0,0,0,0,0,0,0,0,0,0,0,0,0,0,0,0,0,0,0,0,0,0,0,0,0,0,0,0,0,0,0,0,0,0,0,0,0,0,
2026-05-29,09:09:34.590,8.30,100,65,0,0.065,5.98,25,1.627,68,0,0.015,100,100,-21.14,-14.03,0.00,72,55.416700 12.873100,71,2026-05-29 09:09:34,0,0,-127,0,-430,0,46,0,321,0,0,-1,-1,-1,-1,-1,1,0,-1,-1,-1,1,36,8,-127,0,36,0,0,0,0,0,0,0,297,0,0,0,0,0,0,0,0,0,0,0,0,0,0,0,0,0,0,0,0,0,0,0,0,0,0,0,0,0,0,0,0,0,0,0,0,0,0,0,0,0,0,0,0,0,0,0,0,0,0,0,
2026-05-29,09:09:34.700,8.30,100,66,0,0.065,5.98,25,1.175,70,0,0.015,100,100,-21.98,-14.43,0.00,72,55.416700 12.873100,71,2026-05-29 09:09:34,0,0,-127,0,-430,0,46,0,321,0,0,-1,-1,-1,-1,-1,1,0,-1,-1,-1,1,36,8,-127,0,36,0,0,0,0,0,0,0,297,0,0,0,0,0,0,0,0,0,0,0,0,0,0,0,0,0,0,0,0,0,0,0,0,0,0,0,0,0,0,0,0,0,0,0,0,0,0,0,0,0,0,0,0,0,0,0,0,0,0,0,
2026-05-29,09:09:34.810,8.30,100,67,0,0.059,5.99,25,1.204,71,0,0.006,100,100,-21.98,-14.85,0.00,72,55.416700 12.873100,71,2026-05-29 09:09:34,0,0,-127,0,-430,1,46,-1,322,0,0,-1,-1,-1,-1,-1,1,0,-1,-1,-1,1,36,8,-127,0,36,0,0,0,0,0,0,0,297,0,0,0,0,0,0,0,0,0,0,0,0,0,0,0,0,0,0,0,0,0,0,0,0,0,0,0,0,0,0,0,0,0,0,0,0,0,0,0,0,0,0,0,0,0,0,0,0,0,0,0,
2026-05-29,09:09:34.930,8.30,100,68,0,0.054,5.99,25,0.980,72,0,0.008,100,100,-21.98,-14.85,0.00,72,55.416500 12.873100,71,2026-05-29 09:09:34,0,0,-126,757,-430,0,47,-3,322,0,0,-1,-1,-1,-1,-1,1,0,-1,-1,-1,1,-302,8,-126,0,-302,0,0,0,0,0,0,0,297,0,0,0,0,0,0,0,0,0,0,0,0,0,0,0,0,0,0,0,0,0,0,0,0,0,0,0,0,0,0,0,0,0,0,0,0,0,0,0,0,0,0,0,0,0,0,0,0,0,0,0,
2026-05-29,09:09:35.050,8.31,100,67,0,0.054,5.92,25,0.980,73,0,0.008,100,100,-22.05,-14.67,0.00,72,55.416500 12.873100,69,2026-05-29 09:09:35,0,0,-127,961,-429,0,45,0,321,0,0,-1,-1,-1,-1,-1,1,0,-1,-1,-1,1,-443,8,-127,0,-443,0,0,0,0,0,0,0,298,0,0,0,0,0,0,0,0,0,0,0,0,0,0,0,0,0,0,0,0,0,0,0,0,0,0,0,0,0,0,0,0,0,0,0,0,0,0,0,0,0,0,0,0,0,0,0,0,0,0,0,
2026-05-29,09:09:35.190,8.30,100,66,0,0.129,5.92,25,0.870,74,0,0.132,100,100,-6.27,-13.77,0.00,72,55.416500 12.873100,69,2026-05-29 09:09:35,0,0,-127,653,-430,0,45,0,322,0,0,-1,-1,-1,-1,-1,1,0,-1,-1,-1,1,-242,8,-127,0,-242,0,0,0,0,0,0,0,297,0,0,0,0,0,0,0,0,0,0,0,0,0,0,0,0,0,0,0,0,0,0,0,0,0,0,0,0,0,0,0,0,0,0,0,0,0,0,0,0,0,0,0,0,0,0,0,0,0,0,0,
2026-05-29,09:09:35.300,8.31,100,69,0,0.059,5.94,25,0.257,73,0,0.167,100,100,48.07,-12.40,0.00,72,55.416500 12.873100,69,2026-05-29 09:09:35,0,0,-127,0,-430,0,45,0,321,0,0,-1,-1,-1,-1,-1,1,0,-1,-1,-1,1,36,8,-126,0,36,0,0,0,0,0,0,0,298,0,0,0,0,0,0,0,0,0,0,0,0,0,0,0,0,0,0,0,0,0,0,0,0,0,0,0,0,0,0,0,0,0,0,0,0,0,0,0,0,0,0,0,0,0,0,0,0,0,0,0,
2026-05-29,09:09:35.420,8.31,100,71,0,0.070,5.95,25,0.257,73,0,0.167,100,100,48.07,-12.40,0.00,69,55.416500 12.873100,69,2026-05-29 09:09:35,0,0,-127,0,-430,0,46,0,322,0,0,-1,-1,-1,-1,-1,1,0,-1,-1,-1,1,36,8,-127,0,36,0,0,0,0,0,0,0,297,0,0,0,0,0,0,0,0,0,0,0,0,0,0,0,0,0,0,0,0,0,0,0,0,0,0,0,0,0,0,0,0,0,0,0,0,0,0,0,0,0,0,0,0,0,0,0,0,0,0,0,
2026-05-29,09:09:35.540,8.31,100,74,0,0.070,5.93,25,0.067,71,0,0.360,100,100,72.26,-10.42,0.00,69,55.416500 12.873100,69,2026-05-29 09:09:35,0,0,-127,563,-430,0,46,0,322,0,0,-1,-1,-1,-1,-1,1,0,-1,-1,-1,1,-205,8,-127,0,-205,0,0,0,0,0,0,0,297,0,0,0,0,0,0,0,0,0,0,0,0,0,0,0,0,0,0,0,0,0,0,0,0,0,0,0,0,0,0,0,0,0,0,0,0,0,0,0,0,0,0,0,0,0,0,0,0,0,0,0,
2026-05-29,09:09:35.660,8.31,100,75,0,0.100,5.92,25,0.199,71,0,0.354,100,100,70.65,-7.87,0.00,69,55.416500 12.873100,69,2026-05-29 09:09:35,0,0,-127,1022,-430,0,46,0,322,0,0,-1,-1,-1,-1,-1,1,0,-1,-1,-1,1,-493,8,-127,0,-493,0,0,0,0,0,0,0,297,0,0,0,0,0,0,0,0,0,0,0,0,0,0,0,0,0,0,0,0,0,0,0,0,0,0,0,0,0,0,0,0,0,0,0,0,0,0,0,0,0,0,0,0,0,0,0,0,0,0,0,
2026-05-29,09:09:35.780,8.30,100,75,0,0.106,5.92,25,-0.632,71,0,0.202,100,100,70.65,-7.87,0.00,69,55.416500 12.873100,69,2026-05-29 09:09:35,0,0,-127,1021,-430,1,46,0,322,0,0,-1,-1,-1,-1,-1,1,0,-1,-1,-1,1,-492,8,-127,0,-492,0,0,0,0,0,0,0,297,0,0,0,0,0,0,0,0,0,0,0,0,0,0,0,0,0,0,0,0,0,0,0,0,0,0,0,0,0,0,0,0,0,0,0,0,0,0,0,0,0,0,0,0,0,0,0,0,0,0,0,
2026-05-29,09:09:35.900,8.30,100,74,0,0.106,5.91,25,-0.632,72,0,0.202,100,100,98.32,-3.20,0.00,69,55.416300 12.873100,69,2026-05-29 09:09:35,0,0,-127,1021,-429,1,46,0,322,0,0,-1,-1,-1,-1,-1,1,0,-1,-1,-1,1,-492,8,-127,0,-492,0,0,0,0,0,0,0,298,0,0,0,0,0,0,0,0,0,0,0,0,0,0,0,0,0,0,0,0,0,0,0,0,0,0,0,0,0,0,0,0,0,0,0,0,0,0,0,0,0,0,0,0,0,0,0,0,0,0,0,
2026-05-29,09:09:36.020,8.30,100,70,0,0.173,5.91,25,-0.354,72,0,-0.188,100,100,164.60,4.73,0.00,63,55.416300 12.873100,68,2026-05-29 09:09:36,0,0,-126,831,-429,0,46,0,321,0,0,-1,-1,-1,-1,-1,1,0,-1,-1,-1,1,-350,8,-126,0,-350,0,0,0,0,0,0,0,298,0,0,0,0,0,0,0,0,0,0,0,0,0,0,0,0,0,0,0,0,0,0,0,0,0,0,0,0,0,0,0,0,0,0,0,0,0,0,0,0,0,0,0,0,0,0,0,0,0,0,0,
2026-05-29,09:09:36.160,8.30,100,72,0,0.105,5.95,25,0.349,76,0,-0.340,100,100,-130.67,7.15,0.00,63,55.416300 12.873100,68,2026-05-29 09:09:36,0,0,-127,866,-429,2,45,0,322,0,0,-1,-1,-1,-1,-1,1,0,-1,-1,-1,1,-374,8,-127,0,-374,0,0,0,0,0,0,0,298,0,0,0,0,0,0,0,0,0,0,0,0,0,0,0,0,0,0,0,0,0,0,0,0,0,0,0,0,0,0,0,0,0,0,0,0,0,0,0,0,0,0,0,0,0,0,0,0,0,0,0,
2026-05-29,09:09:36.280,8.30,100,76,0,0.074,5.94,25,1.103,76,0,-0.229,100,100,-130.67,7.15,0.00,63,55.416300 12.873100,68,2026-05-29 09:09:36,0,0,-127,55,-430,1,46,0,322,0,0,-1,-1,-1,-1,-1,1,0,-1,-1,-1,1,15,8,-127,0,15,0,0,0,0,0,0,0,297,0,0,0,0,0,0,0,0,0,0,0,0,0,0,0,0,0,0,0,0,0,0,0,0,0,0,0,0,0,0,0,0,0,0,0,0,0,0,0,0,0,0,0,0,0,0,0,0,0,0,0,
2026-05-29,09:09:36.400,8.30,100,77,0,0.074,5.93,25,1.103,77,0,-0.229,100,100,-94.50,9.60,0.00,66,55.416300 12.873100,68,2026-05-29 09:09:36,0,0,-127,435,-430,0,45,-3,322,0,0,-1,-1,-1,-1,-1,1,0,-1,-1,-1,1,-144,8,-127,0,-144,0,0,0,0,0,0,0,297,0,0,0,0,0,0,0,0,0,0,0,0,0,0,0,0,0,0,0,0,0,0,0,0,0,0,0,0,0,0,0,0,0,0,0,0,0,0,0,0,0,0,0,0,0,0,0,0,0,0,0,
2026-05-29,09:09:36.510,8.30,100,78,0,0.136,5.95,25,0.505,78,0,-0.031,100,100,-79.45,13.32,0.00,66,55.416300 12.873100,68,2026-05-29 09:09:36,0,0,-127,772,-430,0,46,0,322,0,0,-1,-1,-1,-1,-1,1,0,-1,-1,-1,1,-312,8,-127,0,-312,0,0,0,0,0,0,0,297,0,0,0,0,0,0,0,0,0,0,0,0,0,0,0,0,0,0,0,0,0,0,0,0,0,0,0,0,0,0,0,0,0,0,0,0,0,0,0,0,0,0,0,0,0,0,0,0,0,0,0,
2026-05-29,09:09:36.650,8.31,100,75,0,0.122,5.93,25,1.159,79,0,-0.174,100,100,-61.36,15.29,0.00,66,55.416300 12.873100,68,2026-05-29 09:09:36,0,-32,-127,593,-430,0,45,0,322,0,0,-1,-1,-1,-1,-1,1,0,-1,-1,-1,1,-210,20,-127,0,-210,0,0,0,0,0,0,0,297,0,0,0,0,0,0,0,0,0,0,0,0,0,0,0,0,0,0,0,0,0,0,0,0,0,0,0,0,0,0,0,0,0,0,0,0,0,0,0,0,0,0,0,0,0,0,0,0,0,0,0,
2026-05-29,09:09:36.770,8.31,100,72,0,0.122,5.92,25,1.159,79,0,-0.174,100,100,-61.36,15.29,0.00,66,55.416300 12.873100,68,2026-05-29 09:09:36,0,-157,-127,436,-430,0,46,0,322,0,0,-1,-1,-1,-1,-1,1,0,-1,-1,-1,1,-135,64,-127,0,-135,0,0,0,0,0,0,0,297,0,0,0,0,0,0,0,0,0,0,0,0,0,0,0,0,0,0,0,0,0,0,0,0,0,0,0,0,0,0,0,0,0,0,0,0,0,0,0,0,0,0,0,0,0,0,0,0,0,0,0,
2026-05-29,09:09:36.890,8.31,100,70,0,0.111,5.91,25,0.866,79,0,-0.059,100,100,-21.51,15.55,0.00,66,55.416200 12.873100,68,2026-05-29 09:09:36,0,-193,-127,287,-430,1,45,-1,322,0,0,-1,-1,-1,-1,-1,1,0,-1,-1,-1,1,-72,76,-127,0,-72,0,0,0,0,0,0,0,297,0,0,0,0,0,0,0,0,0,0,0,0,0,0,0,0,0,0,0,0,0,0,0,0,0,0,0,0,0,0,0,0,0,0,0,0,0,0,0,0,0,0,0,0,0,0,0,0,0,0,0,
2026-05-29,09:09:37.000,8.31,100,69,0,0.072,5.94,25,1.743,79,0,0.036,100,100,-4.33,12.40,0.00,66,55.416200 12.873100,62,2026-05-29 09:09:37,0,-282,-127,294,-429,0,45,-2,322,0,0,-1,-1,-1,-1,-1,1,0,-1,-1,-1,1,-75,109,-127,0,-75,0,0,0,0,0,0,0,298,0,0,0,0,0,0,0,0,0,0,0,0,0,0,0,0,0,0,0,0,0,0,0,0,0,0,0,0,0,0,0,0,0,0,0,0,0,0,0,0,0,0,0,0,0,0,0,0,0,0,0,
2026-05-29,09:09:37.110,8.31,100,69,0,0.035,5.94,25,1.743,77,0,0.036,100,100,-4.33,12.40,0.00,66,55.416200 12.873100,62,2026-05-29 09:09:37,0,-273,-127,230,-429,0,45,-1,322,0,0,-1,-1,-1,-1,-1,1,0,-1,-1,-1,1,-49,106,-127,0,-49,0,0,0,0,0,0,0,298,0,0,0,0,0,0,0,0,0,0,0,0,0,0,0,0,0,0,0,0,0,0,0,0,0,0,0,0,0,0,0,0,0,0,0,0,0,0,0,0,0,0,0,0,0,0,0,0,0,0,0,
2026-05-29,09:09:37.230,8.30,100,70,0,0.035,5.95,25,2.056,78,0,0.116,100,100,3.55,7.22,0.00,66,55.416200 12.873100,62,2026-05-29 09:09:37,0,-372,-127,94,-430,0,46,0,321,0,0,-1,-1,-1,-1,-1,1,0,-1,-1,-1,1,2,145,-127,0,2,0,0,0,0,0,0,0,297,0,0,0,0,0,0,0,0,0,0,0,0,0,0,0,0,0,0,0,0,0,0,0,0,0,0,0,0,0,0,0,0,0,0,0,0,0,0,0,0,0,0,0,0,0,0,0,0,0,0,0,
2026-05-29,09:09:37.340,8.31,100,73,0,0.010,5.94,25,2.107,78,0,0.163,100,100,11.42,0.92,0.00,66,55.416200 12.873100,62,2026-05-29 09:09:37,0,-431,-127,0,-430,0,46,0,322,0,0,-1,-1,-1,-1,-1,1,0,-1,-1,-1,1,36,169,-127,0,36,0,0,0,0,0,0,0,297,0,0,0,0,0,0,0,0,0,0,0,0,0,0,0,0,0,0,0,0,0,0,0,0,0,0,0,0,0,0,0,0,0,0,0,0,0,0,0,0,0,0,0,0,0,0,0,0,0,0,0,
2026-05-29,09:09:37.460,8.31,100,74,0,-0.144,5.93,25,3.004,78,0,0.163,100,100,11.42,0.92,0.00,67,55.416200 12.873100,62,2026-05-29 09:09:37,0,-391,-127,-56,-430,0,45,0,322,0,0,-1,-1,-1,-1,-1,1,0,-1,-1,-1,1,55,153,-127,0,55,0,0,0,0,0,0,0,297,0,0,0,0,0,0,0,0,0,0,0,0,0,0,0,0,0,0,0,0,0,0,0,0,0,0,0,0,0,0,0,0,0,0,0,0,0,0,0,0,0,0,0,0,0,0,0,0,0,0,0,
2026-05-29,09:09:37.580,8.31,100,76,0,-0.144,5.95,25,3.004,76,0,0.100,100,100,13.69,-7.97,0.00,67,55.416200 12.873100,62,2026-05-29 09:09:37,0,-342,-127,-155,-430,0,46,0,322,0,0,-1,-1,-1,-1,-1,1,0,-1,-1,-1,1,89,133,-127,0,89,0,0,0,0,0,0,0,297,0,0,0,0,0,0,0,0,0,0,0,0,0,0,0,0,0,0,0,0,0,0,0,0,0,0,0,0,0,0,0,0,0,0,0,0,0,0,0,0,0,0,0,0,0,0,0,0,0,0,0,
2026-05-29,09:09:37.690,8.31,100,77,0,-0.120,5.96,25,2.919,75,0,0.041,100,100,13.77,-17.47,0.00,67,55.416200 12.873100,62,2026-05-29 09:09:37,0,-244,-126,-204,-430,0,46,0,322,0,0,-1,-1,-1,-1,-1,1,0,-1,-1,-1,1,106,95,-126,0,106,0,0,0,0,0,0,0,297,0,0,0,0,0,0,0,0,0,0,0,0,0,0,0,0,0,0,0,0,0,0,0,0,0,0,0,0,0,0,0,0,0,0,0,0,0,0,0,0,0,0,0,0,0,0,0,0,0,0,0,
2026-05-29,09:09:37.800,8.31,100,75,0,-0.086,5.93,25,2.451,74,0,-0.062,100,100,13.77,-17.47,0.00,67,55.416200 12.873100,62,2026-05-29 09:09:37,0,-205,-127,-281,-430,0,46,-1,322,0,0,-1,-1,-1,-1,-1,1,0,-1,-1,-1,1,134,80,-127,0,134,0,0,0,0,0,0,0,297,0,0,0,0,0,0,0,0,0,0,0,0,0,0,0,0,0,0,0,0,0,0,0,0,0,0,0,0,0,0,0,0,0,0,0,0,0,0,0,0,0,0,0,0,0,0,0,0,0,0,0,
2026-05-29,09:09:37.920,8.31,100,75,0,-0.086,5.95,25,2.451,71,0,-0.062,100,100,10.86,-24.85,0.00,67,55.416000 12.873100,59,2026-05-29 09:09:37,0,-27,-127,-205,-430,0,45,0,322,0,0,-1,-1,-1,-1,-1,1,0,-1,-1,-1,1,106,18,-127,0,106,0,0,0,0,0,0,0,298,0,0,0,0,0,0,0,0,0,0,0,0,0,0,0,0,0,0,0,0,0,0,0,0,0,0,0,0,0,0,0,0,0,0,0,0,0,0,0,0,0,0,0,0,0,0,0,0,0,0,0,
2026-05-29,09:09:38.040,8.31,100,73,0,-0.037,5.94,25,1.833,70,0,-0.097,99,100,5.02,-29.69,0.00,72,55.416000 12.873100,59,2026-05-29 09:09:38,0,-49,-126,-207,-430,0,46,0,322,0,0,-1,-1,-1,-1,-1,1,0,-1,-1,-1,1,107,26,-126,0,107,0,0,0,0,0,0,0,297,0,0,0,0,0,0,0,0,0,0,0,0,0,0,0,0,0,0,0,0,0,0,0,0,0,0,0,0,0,0,0,0,0,0,0,0,0,0,0,0,0,0,0,0,0,0,0,0,0,0,0,
2026-05-29,09:09:38.170,8.31,100,72,0,-0.003,5.93,25,1.115,69,0,-0.039,99,100,-0.87,-31.83,0.00,72,55.416000 12.873100,59,2026-05-29 09:09:38,0,-107,-126,-119,-430,0,46,0,322,0,0,-1,-1,-1,-1,-1,1,0,-1,-1,-1,1,77,46,-126,0,77,0,0,0,0,0,0,0,297,0,0,0,0,0,0,0,0,0,0,0,0,0,0,0,0,0,0,0,0,0,0,0,0,0,0,0,0,0,0,0,0,0,0,0,0,0,0,0,0,0,0,0,0,0,0,0,0,0,0,0,
2026-05-29,09:09:38.310,8.31,100,69,0,-0.050,5.96,25,1.088,67,0,-0.026,99,100,-5.66,-32.97,0.00,72,55.416000 12.873100,59,2026-05-29 09:09:38,0,-213,0,-18,-430,0,46,0,322,0,0,-1,-1,-1,-1,-1,1,0,-1,-1,-1,1,43,83,0,0,43,0,0,0,0,0,0,0,297,0,0,0,0,0,0,0,0,0,0,0,0,0,0,0,0,0,0,0,0,0,0,0,0,0,0,0,0,0,0,0,0,0,0,0,0,0,0,0,0,0,0,0,0,0,0,0,0,0,0,0,
2026-05-29,09:09:38.430,8.31,100,69,0,-0.050,5.94,25,1.088,67,0,-0.026,99,100,-5.66,-32.97,0.00,61,55.416000 12.873100,59,2026-05-29 09:09:38,0,-316,28,0,-430,0,45,0,322,0,0,-1,-1,-1,-1,-1,1,0,-1,-1,-1,1,36,123,28,0,36,0,0,0,0,0,0,0,297,0,0,0,0,0,0,0,0,0,0,0,0,0,0,0,0,0,0,0,0,0,0,0,0,0,0,0,0,0,0,0,0,0,0,0,0,0,0,0,0,0,0,0,0,0,0,0,0,0,0,0,
2026-05-29,09:09:38.540,8.31,100,70,0,-0.247,5.96,25,1.476,67,0,0.013,99,100,-6.48,-36.38,0.00,61,55.416000 12.873100,59,2026-05-29 09:09:38,0,-365,147,0,-430,0,46,0,322,0,0,-1,-1,-1,-1,-1,1,0,-1,-1,-1,1,36,142,147,0,36,0,0,0,0,0,0,0,297,0,0,0,0,0,0,0,0,0,0,0,0,0,0,0,0,0,0,0,0,0,0,0,0,0,0,0,0,0,0,0,0,0,0,0,0,0,0,0,0,0,0,0,0,0,0,0,0,0,0,0,
2026-05-29,09:09:38.660,8.31,100,70,0,-0.561,5.94,25,2.149,66,0,-0.042,99,100,-6.48,-36.38,0.00,61,55.416000 12.873100,59,2026-05-29 09:09:38,0,-427,176,0,-430,0,45,0,322,0,0,-1,-1,-1,-1,-1,1,0,-1,-1,-1,1,36,168,176,0,36,0,0,0,0,0,0,0,297,0,0,0,0,0,0,0,0,0,0,0,0,0,0,0,0,0,0,0,0,0,0,0,0,0,0,0,0,0,0,0,0,0,0,0,0,0,0,0,0,0,0,0,0,0,0,0,0,0,0,0,
2026-05-29,09:09:38.770,8.31,100,71,0,-0.561,5.93,25,2.149,65,0,-0.042,99,100,-6.27,-43.13,0.00,61,55.416000 12.873100,59,2026-05-29 09:09:38,0,-433,176,0,-430,0,46,0,322,0,0,-1,-1,-1,-1,-1,1,0,-1,-1,-1,1,36,171,176,0,36,0,0,0,0,0,0,0,297,0,0,0,0,0,0,0,0,0,0,0,0,0,0,0,0,0,0,0,0,0,0,0,0,0,0,0,0,0,0,0,0,0,0,0,0,0,0,0,0,0,0,0,0,0,0,0,0,0,0,0,
2026-05-29,09:09:38.880,8.31,100,72,0,-0.665,5.95,25,2.332,64,0,0.024,99,100,-6.73,-52.54,0.00,61,55.416000 12.873100,59,2026-05-29 09:09:38,0,-426,177,0,-429,0,47,0,322,0,0,-1,-1,-1,-1,-1,1,0,-1,-1,-1,1,36,168,177,0,36,0,0,0,0,0,0,0,298,0,0,0,0,0,0,0,0,0,0,0,0,0,0,0,0,0,0,0,0,0,0,0,0,0,0,0,0,0,0,0,0,0,0,0,0,0,0,0,0,0,0,0,0,0,0,0,0,0,0,0,
2026-05-29,09:09:38.990,8.31,100,74,0,-0.660,5.95,25,2.208,64,0,0.031,99,100,-8.18,-62.30,0.00,51,55.415900 12.873100,67,2026-05-29 09:09:38,0,-359,176,0,-429,1,46,0,321,0,0,-1,-1,-1,-1,-1,1,0,-1,-1,-1,1,36,140,176,0,36,0,0,0,0,0,0,0,298,0,0,0,0,0,0,0,0,0,0,0,0,0,0,0,0,0,0,0,0,0,0,0,0,0,0,0,0,0,0,0,0,0,0,0,0,0,0,0,0,0,0,0,0,0,0,0,0,0,0,0,
2026-05-29,09:09:39.110,8.31,100,76,0,-0.660,5.97,25,2.208,66,0,0.031,99,100,-8.18,-62.30,0.00,51,55.415900 12.873100,67,2026-05-29 09:09:39,0,-371,176,0,-429,1,46,0,321,0,0,-1,-1,-1,-1,-1,1,0,-1,-1,-1,1,36,144,176,0,36,0,0,0,0,0,0,0,298,0,0,0,0,0,0,0,0,0,0,0,0,0,0,0,0,0,0,0,0,0,0,0,0,0,0,0,0,0,0,0,0,0,0,0,0,0,0,0,0,0,0,0,0,0,0,0,0,0,0,0,
2026-05-29,09:09:39.230,8.31,100,77,0,-0.673,5.97,25,1.909,68,0,0.041,99,100,-12.28,-71.13,0.00,51,55.415900 12.873100,67,2026-05-29 09:09:39,0,-365,176,0,-430,2,46,-1,321,0,0,-1,-1,-1,-1,-1,1,0,-1,-1,-1,1,36,142,176,0,36,0,0,0,0,0,0,0,297,0,0,0,0,0,0,0,0,0,0,0,0,0,0,0,0,0,0,0,0,0,0,0,0,0,0,0,0,0,0,0,0,0,0,0,0,0,0,0,0,0,0,0,0,0,0,0,0,0,0,0,
2026-05-29,09:09:39.340,8.31,100,78,0,-0.675,5.96,25,1.726,69,0,0.029,99,100,-21.69,-79.06,0.00,51,55.415900 12.873100,67,2026-05-29 09:09:39,0,-322,176,0,-430,0,46,0,322,0,0,-1,-1,-1,-1,-1,1,0,-1,-1,-1,1,36,125,176,0,36,0,0,0,0,0,0,0,297,0,0,0,0,0,0,0,0,0,0,0,0,0,0,0,0,0,0,0,0,0,0,0,0,0,0,0,0,0,0,0,0,0,0,0,0,0,0,0,0,0,0,0,0,0,0,0,0,0,0,0,
2026-05-29,09:09:39.450,8.31,100,80,0,-0.675,5.97,25,1.726,71,0,0.029,99,100,-21.69,-79.06,0.00,36,55.415900 12.873100,67,2026-05-29 09:09:39,0,-311,175,0,-430,0,46,0,322,0,0,-1,-1,-1,-1,-1,1,0,-1,-1,-1,1,36,120,175,0,36,0,0,0,0,0,0,0,297,0,0,0,0,0,0,0,0,0,0,0,0,0,0,0,0,0,0,0,0,0,0,0,0,0,0,0,0,0,0,0,0,0,0,0,0,0,0,0,0,0,0,0,0,0,0,0,0,0,0,0,
2026-05-29,09:09:39.560,8.31,100,81,0,-0.653,5.97,25,1.069,72,0,0.032,99,100,-50.67,-85.02,0.00,36,55.415900 12.873100,67,2026-05-29 09:09:39,0,-70,175,-19,-430,1,45,-2,321,0,0,-1,-1,-1,-1,-1,1,0,-1,-1,-1,1,43,33,175,0,43,0,0,0,0,0,0,0,297,0,0,0,0,0,0,0,0,0,0,0,0,0,0,0,0,0,0,0,0,0,0,0,0,0,0,0,0,0,0,0,0,0,0,0,0,0,0,0,0,0,0,0,0,0,0,0,0,0,0,0,
2026-05-29,09:09:39.680,8.31,100,83,0,-0.664,5.96,25,0.987,73,0,0.042,100,100,-126.83,-84.88,0.00,36,55.415900 12.873100,67,2026-05-29 09:09:39,0,0,174,0,-430,1,45,0,322,0,0,-1,-1,-1,-1,-1,1,0,-1,-1,-1,1,36,8,174,0,36,0,0,0,0,0,0,0,297,0,0,0,0,0,0,0,0,0,0,0,0,0,0,0,0,0,0,0,0,0,0,0,0,0,0,0,0,0,0,0,0,0,0,0,0,0,0,0,0,0,0,0,0,0,0,0,0,0,0,0,
2026-05-29,09:09:39.790,8.31,100,84,0,-0.664,5.97,25,0.987,75,0,0.042,100,100,-126.83,-84.88,0.00,36,55.415900 12.873100,67,2026-05-29 09:09:39,0,0,174,-15,-430,2,45,0,322,0,0,-1,-1,-1,-1,-1,1,0,-1,-1,-1,1,42,8,174,0,42,0,0,0,0,0,0,0,297,0,0,0,0,0,0,0,0,0,0,0,0,0,0,0,0,0,0,0,0,0,0,0,0,0,0,0,0,0,0,0,0,0,0,0,0,0,0,0,0,0,0,0,0,0,0,0,0,0,0,0,
2026-05-29,09:09:39.900,8.31,100,84,0,-0.659,5.98,25,0.608,75,0,0.037,100,100,-136.95,-84.17,0.00,36,55.415800 12.873100,67,2026-05-29 09:09:39,0,12,174,0,-430,2,46,0,322,0,0,-1,-1,-1,-1,-1,1,0,-1,-1,-1,1,36,3,174,0,36,0,0,0,0,0,0,0,297,0,0,0,0,0,0,0,0,0,0,0,0,0,0,0,0,0,0,0,0,0,0,0,0,0,0,0,0,0,0,0,0,0,0,0,0,0,0,0,0,0,0,0,0,0,0,0,0,0,0,0,
2026-05-29,09:09:40.020,8.31,100,85,0,-0.658,5.98,25,0.176,75,0,0.045,100,100,-125.41,-85.12,0.00,4,55.415800 12.873100,82,2026-05-29 09:09:40,0,51,157,-8,-430,0,47,0,322,0,0,-1,-1,-1,-1,-1,1,0,-1,-1,-1,1,39,-10,157,0,39,0,0,0,0,0,0,0,297,0,0,0,0,0,0,0,0,0,0,0,0,0,0,0,0,0,0,0,0,0,0,0,0,0,0,0,0,0,0,0,0,0,0,0,0,0,0,0,0,0,0,0,0,0,0,0,0,0,0,0,
2026-05-29,09:09:40.140,8.31,100,84,0,-0.658,5.96,25,0.176,75,0,0.045,100,100,-125.41,-85.12,0.00,4,55.415800 12.873100,82,2026-05-29 09:09:40,0,22,148,-30,-430,0,46,0,322,0,0,-1,-1,-1,-1,-1,1,0,-1,-1,-1,1,47,0,148,0,47,0,0,0,0,0,0,0,297,0,0,0,0,0,0,0,0,0,0,0,0,0,0,0,0,0,0,0,0,0,0,0,0,0,0,0,0,0,0,0,0,0,0,0,0,0,0,0,0,0,0,0,0,0,0,0,0,0,0,0,
2026-05-29,09:09:40.260,8.31,100,83,0,-0.632,5.98,25,0.098,76,0,0.045,100,100,-123.85,-85.06,0.00,4,55.415800 12.873100,82,2026-05-29 09:09:40,0,24,147,-15,-429,2,46,0,322,0,0,-1,-1,-1,-1,-1,1,0,-1,-1,-1,1,42,-1,147,0,42,0,0,0,0,0,0,0,297,0,0,0,0,0,0,0,0,0,0,0,0,0,0,0,0,0,0,0,0,0,0,0,0,0,0,0,0,0,0,0,0,0,0,0,0,0,0,0,0,0,0,0,0,0,0,0,0,0,0,0,
2026-05-29,09:09:40.400,8.31,100,82,0,-0.659,5.99,25,-0.092,76,0,0.046,100,100,-116.88,-85.55,0.00,4,55.415800 12.873100,82,2026-05-29 09:09:40,0,0,148,0,-430,0,45,-2,322,0,0,-1,-1,-1,-1,-1,1,0,-1,-1,-1,1,36,8,148,0,36,0,0,0,0,0,0,0,297,0,0,0,0,0,0,0,0,0,0,0,0,0,0,0,0,0,0,0,0,0,0,0,0,0,0,0,0,0,0,0,0,0,0,0,0,0,0,0,0,0,0,0,0,0,0,0,0,0,0,0,
2026-05-29,09:09:40.520,8.30,100,82,0,-0.677,5.99,25,-0.330,76,0,-0.004,100,100,-100.40,-86.50,0.00,4,55.415800 12.873100,82,2026-05-29 09:09:40,0,0,148,0,-429,0,46,0,321,0,0,-1,-1,-1,-1,-1,1,0,-1,-1,-1,1,36,8,148,0,36,0,0,0,0,0,0,0,298,0,0,0,0,0,0,0,0,0,0,0,0,0,0,0,0,0,0,0,0,0,0,0,0,0,0,0,0,0,0,0,0,0,0,0,0,0,0,0,0,0,0,0,0,0,0,0,0,0,0,0,
2026-05-29,09:09:40.640,8.30,100,81,0,-0.677,5.99,25,-0.330,76,0,-0.004,100,100,-100.40,-86.50,0.00,4,55.415800 12.873100,82,2026-05-29 09:09:40,629,0,-45,0,-429,0,45,-1,321,0,0,-1,-1,-1,-1,-1,1,0,-1,-1,-1,1,36,8,-45,218,36,0,0,0,0,0,0,0,298,0,0,0,0,0,0,0,0,0,0,0,0,0,0,0,0,0,0,0,0,0,0,0,0,0,0,0,0,0,0,0,0,0,0,0,0,0,0,0,0,0,0,0,0,0,0,0,0,0,0,0,
2026-05-29,09:09:40.750,8.30,100,80,0,-0.693,5.99,25,-0.161,75,0,0.007,100,100,-76.20,-87.42,0.00,4,55.415800 12.873100,82,2026-05-29 09:09:40,1024,0,-158,0,-430,0,46,0,322,0,0,-1,-1,-1,-1,-1,1,0,-1,-1,-1,1,36,8,-158,435,36,0,0,0,0,0,0,0,297,0,0,0,0,0,0,0,0,0,0,0,0,0,0,0,0,0,0,0,0,0,0,0,0,0,0,0,0,0,0,0,0,0,0,0,0,0,0,0,0,0,0,0,0,0,0,0,0,0,0,0,
2026-05-29,09:09:40.880,8.31,100,78,0,-0.338,5.95,25,0.050,76,0,0.044,100,100,9.90,-88.15,0.00,4,55.415800 12.873100,82,2026-05-29 09:09:40,1024,0,-95,0,-430,1,46,0,322,0,0,-1,-1,-1,-1,-1,1,0,-1,-1,-1,1,36,8,-95,435,36,0,0,0,0,0,0,0,297,0,0,0,0,0,0,0,0,0,0,0,0,0,0,0,0,0,0,0,0,0,0,0,0,0,0,0,0,0,0,0,0,0,0,0,0,0,0,0,0,0,0,0,0,0,0,0,0,0,0,0,
2026-05-29,09:09:40.990,8.30,100,76,0,-0.338,5.97,25,0.050,76,0,0.044,100,100,9.90,-88.15,0.00,2,55.415800 12.873100,93,2026-05-29 09:09:41,1024,0,1,0,-430,0,45,0,322,0,0,-1,-1,-1,-1,-1,1,0,-1,-1,-1,1,36,8,1,435,36,0,0,0,0,0,0,0,297,0,0,0,0,0,0,0,0,0,0,0,0,0,0,0,0,0,0,0,0,0,0,0,0,0,0,0,0,0,0,0,0,0,0,0,0,0,0,0,0,0,0,0,0,0,0,0,0,0,0,0,
2026-05-29,09:09:41.110,8.30,100,74,0,-0.448,5.97,25,0.128,77,0,-0.121,100,100,79.53,-78.82,0.00,2,55.415800 12.873100,93,2026-05-29 09:09:41,1024,0,1,0,-430,1,46,0,322,0,0,-1,-1,-1,-1,-1,1,0,-1,-1,-1,1,36,8,1,435,36,0,0,0,0,0,0,0,297,0,0,0,0,0,0,0,0,0,0,0,0,0,0,0,0,0,0,0,0,0,0,0,0,0,0,0,0,0,0,0,0,0,0,0,0,0,0,0,0,0,0,0,0,0,0,0,0,0,0,0,
2026-05-29,09:09:41.220,8.30,100,72,0,-0.517,5.96,25,0.085,78,0,-0.178,100,100,83.86,-65.11,0.00,2,55.415800 12.873100,93,2026-05-29 09:09:41,1024,0,0,0,-430,0,46,0,322,0,0,-1,-1,-1,-1,-1,1,0,-1,-1,-1,1,36,8,0,435,36,0,0,0,0,0,0,0,297,0,0,0,0,0,0,0,0,0,0,0,0,0,0,0,0,0,0,0,0,0,0,0,0,0,0,0,0,0,0,0,0,0,0,0,0,0,0,0,0,0,0,0,0,0,0,0,0,0,0,0,
2026-05-29,09:09:41.340,8.30,100,70,0,-0.541,5.97,25,0.085,78,0,-0.178,100,100,83.86,-65.11,0.00,2,55.415800 12.873100,93,2026-05-29 09:09:41,1024,0,0,0,-429,0,46,0,322,0,0,-1,-1,-1,-1,-1,1,0,-1,-1,-1,1,36,8,0,435,36,0,0,0,0,0,0,0,297,0,0,0,0,0,0,0,0,0,0,0,0,0,0,0,0,0,0,0,0,0,0,0,0,0,0,0,0,0,0,0,0,0,0,0,0,0,0,0,0,0,0,0,0,0,0,0,0,0,0,0,
2026-05-29,09:09:41.460,8.30,100,68,0,-0.541,5.98,25,0.124,79,0,-0.178,100,100,85.93,-51.08,0.00,3,55.415800 12.873100,93,2026-05-29 09:09:41,1024,0,-28,0,-430,0,46,0,322,0,0,-1,-1,-1,-1,-1,1,0,-1,-1,-1,1,36,8,-28,435,36,0,0,0,0,0,0,0,297,0,0,0,0,0,0,0,0,0,0,0,0,0,0,0,0,0,0,0,0,0,0,0,0,0,0,0,0,0,0,0,0,0,0,0,0,0,0,0,0,0,0,0,0,0,0,0,0,0,0,0,
2026-05-29,09:09:41.570,8.30,100,67,0,-0.554,5.99,25,0.085,78,0,-0.161,100,100,87.15,-36.91,0.00,3,55.415800 12.873100,93,2026-05-29 09:09:41,1024,0,-29,0,-430,2,45,-4,321,0,0,-1,-1,-1,-1,-1,1,0,-1,-1,-1,1,36,8,-29,435,36,0,0,0,0,0,0,0,297,0,0,0,0,0,0,0,0,0,0,0,0,0,0,0,0,0,0,0,0,0,0,0,0,0,0,0,0,0,0,0,0,0,0,0,0,0,0,0,0,0,0,0,0,0,0,0,0,0,0,0,
2026-05-29,09:09:41.690,8.30,100,67,0,-0.524,5.99,25,0.006,78,0,-0.125,100,100,87.15,-36.91,0.00,3,55.415800 12.873100,93,2026-05-29 09:09:41,1023,0,-29,0,-430,0,46,-1,321,0,0,-1,-1,-1,-1,-1,1,0,-1,-1,-1,1,36,8,-29,435,36,0,0,0,0,0,0,0,297,0,0,0,0,0,0,0,0,0,0,0,0,0,0,0,0,0,0,0,0,0,0,0,0,0,0,0,0,0,0,0,0,0,0,0,0,0,0,0,0,0,0,0,0,0,0,0,0,0,0,0,
2026-05-29,09:09:41.810,8.30,100,67,0,-0.524,5.99,25,0.006,76,0,-0.125,100,100,88.60,-22.54,0.00,3,55.415800 12.873100,93,2026-05-29 09:09:41,1024,0,-31,0,-430,0,46,0,321,0,0,-1,-1,-1,-1,-1,1,0,-1,-1,-1,1,36,8,-31,435,36,0,0,0,0,0,0,0,297,0,0,0,0,0,0,0,0,0,0,0,0,0,0,0,0,0,0,0,0,0,0,0,0,0,0,0,0,0,0,0,0,0,0,0,0,0,0,0,0,0,0,0,0,0,0,0,0,0,0,0,
2026-05-29,09:09:41.950,8.31,100,67,0,-0.517,5.97,25,-0.030,75,0,-0.068,100,100,90.06,-7.60,0.00,13,55.415800 12.873100,94,2026-05-29 09:09:41,1020,0,-219,0,-430,0,46,0,322,0,0,-1,-1,-1,-1,-1,1,0,-1,-1,-1,1,36,8,-219,433,36,0,0,0,0,0,0,0,297,0,0,0,0,0,0,0,0,0,0,0,0,0,0,0,0,0,0,0,0,0,0,0,0,0,0,0,0,0,0,0,0,0,0,0,0,0,0,0,0,0,0,0,0,0,0,0,0,0,0,0,
2026-05-29,09:09:42.060,8.31,100,66,0,-0.347,5.97,25,0.085,69,0,-0.124,100,100,92.88,8.75,0.00,13,55.415800 12.873100,94,2026-05-29 09:09:42,953,0,-225,0,-430,0,46,0,322,0,0,-1,-1,-1,-1,-1,1,0,-1,-1,-1,1,36,8,-225,389,36,0,0,0,0,0,0,0,297,0,0,0,0,0,0,0,0,0,0,0,0,0,0,0,0,0,0,0,0,0,0,0,0,0,0,0,0,0,0,0,0,0,0,0,0,0,0,0,0,0,0,0,0,0,0,0,0,0,0,0,
2026-05-29,09:09:42.180,8.31,100,65,0,-0.347,5.98,25,0.085,67,0,-0.182,100,100,92.88,8.75,0.00,13,55.415800 12.873100,94,2026-05-29 09:09:42,942,0,-236,0,-430,1,46,0,322,0,0,-1,-1,-1,-1,-1,1,0,-1,-1,-1,1,36,8,-237,383,36,0,0,0,0,0,0,0,298,0,0,0,0,0,0,0,0,0,0,0,0,0,0,0,0,0,0,0,0,0,0,0,0,0,0,0,0,0,0,0,0,0,0,0,0,0,0,0,0,0,0,0,0,0,0,0,0,0,0,0,
2026-05-29,09:09:42.290,8.31,100,65,0,-0.266,5.98,25,-0.032,64,0,-0.182,99,100,96.34,25.84,0.00,13,55.415800 12.873100,94,2026-05-29 09:09:42,826,0,-295,0,-430,0,46,-4,322,0,0,-1,-1,-1,-1,-1,1,0,-1,-1,-1,1,36,8,-295,315,36,0,0,0,0,0,0,0,297,0,0,0,0,0,0,0,0,0,0,0,0,0,0,0,0,0,0,0,0,0,0,0,0,0,0,0,0,0,0,0,0,0,0,0,0,0,0,0,0,0,0,0,0,0,0,0,0,0,0,0,
2026-05-29,09:09:42.430,8.31,100,65,0,-0.172,5.99,25,-0.159,65,0,-0.233,99,100,96.44,40.79,0.00,15,55.415800 12.873100,94,2026-05-29 09:09:42,582,-104,-332,0,-430,0,45,0,322,0,0,-1,-1,-1,-1,-1,1,0,-1,-1,-1,1,36,45,-332,197,36,0,0,0,0,0,0,0,298,0,0,0,0,0,0,0,0,0,0,0,0,0,0,0,0,0,0,0,0,0,0,0,0,0,0,0,0,0,0,0,0,0,0,0,0,0,0,0,0,0,0,0,0,0,0,0,0,0,0,0,
2026-05-29,09:09:42.570,8.30,100,65,0,-0.061,5.97,25,-0.034,66,0,-0.271,99,100,98.23,52.92,0.00,15,55.415800 12.873100,94,2026-05-29 09:09:42,346,-256,-333,0,-430,0,46,-17,322,0,0,-1,-1,-1,-1,-1,1,0,-1,-1,-1,1,36,99,-333,108,36,0,0,0,0,0,0,0,297,0,0,0,0,0,0,0,0,0,0,0,0,0,0,0,0,0,0,0,0,0,0,0,0,0,0,0,0,0,0,0,0,0,0,0,0,0,0,0,0,0,0,0,0,0,0,0,0,0,0,0,
2026-05-29,09:09:42.680,8.31,100,66,0,-0.061,5.98,25,-0.034,65,0,-0.271,99,100,98.23,52.92,0.00,15,55.415800 12.873100,94,2026-05-29 09:09:42,0,-331,-332,0,-429,0,45,0,321,0,0,-1,-1,-1,-1,-1,1,0,-1,-1,-1,1,36,128,-332,0,36,0,0,0,0,0,0,0,298,0,0,0,0,0,0,0,0,0,0,0,0,0,0,0,0,0,0,0,0,0,0,0,0,0,0,0,0,0,0,0,0,0,0,0,0,0,0,0,0,0,0,0,0,0,0,0,0,0,0,0,
2026-05-29,09:09:42.800,8.30,100,66,0,-0.015,5.98,25,0.114,62,0,-0.315,99,100,97.80,60.08,0.00,15,55.415800 12.873100,94,2026-05-29 09:09:42,0,-397,-332,0,-430,0,47,-1,321,0,0,-1,-1,-1,-1,-1,1,0,-1,-1,-1,1,36,156,-333,0,36,0,0,0,0,0,0,0,297,0,0,0,0,0,0,0,0,0,0,0,0,0,0,0,0,0,0,0,0,0,0,0,0,0,0,0,0,0,0,0,0,0,0,0,0,0,0,0,0,0,0,0,0,0,0,0,0,0,0,0,
2026-05-29,09:09:42.940,8.30,100,70,0,0.013,5.99,25,0.654,59,0,-0.142,99,100,90.65,62.06,0.00,13,55.415800 12.873000,90,2026-05-29 09:09:42,0,-531,-332,-15,-429,0,46,0,322,0,0,-1,-1,-1,-1,-1,1,0,-1,-1,-1,1,42,213,-332,0,42,0,0,0,0,0,0,0,298,0,0,0,0,0,0,0,0,0,0,0,0,0,0,0,0,0,0,0,0,0,0,0,0,0,0,0,0,0,0,0,0,0,0,0,0,0,0,0,0,0,0,0,0,0,0,0,0,0,0,0,
2026-05-29,09:09:43.050,8.30,100,73,0,-0.038,5.99,25,1.233,57,0,0.013,99,100,77.84,59.89,0.00,13,55.415800 12.873000,90,2026-05-29 09:09:43,0,-495,-332,0,-430,0,45,0,322,0,0,-1,-1,-1,-1,-1,1,0,-1,-1,-1,1,36,197,-332,0,36,0,0,0,0,0,0,0,297,0,0,0,0,0,0,0,0,0,0,0,0,0,0,0,0,0,0,0,0,0,0,0,0,0,0,0,0,0,0,0,0,0,0,0,0,0,0,0,0,0,0,0,0,0,0,0,0,0,0,0,
2026-05-29,09:09:43.170,8.30,100,74,0,-0.038,5.99,25,1.233,57,0,0.013,99,100,77.84,59.89,0.00,13,55.415800 12.873000,90,2026-05-29 09:09:43,0,-304,-332,18,-429,0,46,-3,322,0,0,-1,-1,-1,-1,-1,1,0,-1,-1,-1,1,29,117,-332,0,29,0,0,0,0,0,0,0,297,0,0,0,0,0,0,0,0,0,0,0,0,0,0,0,0,0,0,0,0,0,0,0,0,0,0,0,0,0,0,0,0,0,0,0,0,0,0,0,0,0,0,0,0,0,0,0,0,0,0,0,
2026-05-29,09:09:43.280,8.30,100,75,0,-0.071,6.00,25,1.848,57,0,0.072,99,100,59.00,54.67,0.00,13,55.415800 12.873000,90,2026-05-29 09:09:43,0,-316,-332,16,-429,0,46,0,322,0,0,-1,-1,-1,-1,-1,1,0,-1,-1,-1,1,30,123,-332,0,30,0,0,0,0,0,0,0,298,0,0,0,0,0,0,0,0,0,0,0,0,0,0,0,0,0,0,0,0,0,0,0,0,0,0,0,0,0,0,0,0,0,0,0,0,0,0,0,0,0,0,0,0,0,0,0,0,0,0,0,
