Date,Time,TxBat(V),VFR 900M(%),RSSI 900M(dB),RX,AccX(g),RxBatt(V),Power 900M(mW),AccZ(g),RSSI 2.4G(dB),RX,AccY(g),VFR 2.4G(%),Rx VFR(%),R.angle(°),P.angle(°),ADC2(V),GPS speed(km/h),GPS,GPS alt(m),GPS clock(),Rudder,Elevator,Throttle,Aileron,Pot1,Pot2,Ext1,Ext2,Pot3,Slider left,Slider right,SA,SB,SC,SD,SE,SF,SG,SH,SI,SJ,LS1,CH1,CH2,CH3,CH4,CH5,CH6,CH7,CH8,CH9,CH10,CH11,CH12,CH13,CH14,CH15,CH16,CH17,CH18,CH19,CH20,CH21,CH22,CH23,CH24,CH25,CH26,CH27,CH28,CH29,CH30,CH31,CH32,CH33,CH34,CH35,CH36,CH37,CH38,CH39,CH40,CH41,CH42,CH43,CH44,CH45,CH46,CH47,CH48,CH49,CH50,CH51,CH52,CH53,CH54,CH55,CH56,CH57,CH58,CH59,CH60,CH61,CH62,CH63,CH64,
2026-05-29,09:36:09.080,8.21,97,100,0,-0.150,5.96,25,0.997,88,0,-0.011,100,100,-1.72,-7.41,0.00,0,0.000000 12.873600,1,,0,0,-1021,0,-430,1,64,36,322,0,0,-1,-1,-1,-1,-1,-1,0,-1,-1,-1,0,36,8,-1024,0,36,0,0,0,0,0,0,0,297,0,0,0,0,0,0,0,0,0,0,0,0,0,0,0,0,0,0,0,0,0,0,0,0,0,0,0,0,0,0,0,0,0,0,0,0,0,0,0,0,0,0,0,0,0,0,0,0,0,0,0,
2026-05-29,09:36:09.020,8.21,100,100,0,-0.150,5.98,25,0.993,88,0,-0.011,100,100,-1.90,-8.09,0.00,1,55.415800 12.873600,7,2026-05-29 09:36:09,0,0,-1021,0,-430,2,64,35,322,0,0,-1,-1,-1,-1,-1,-1,0,-1,-1,-1,0,36,8,-1024,0,36,0,0,0,0,0,0,0,297,0,0,0,0,0,0,0,0,0,0,0,0,0,0,0,0,0,0,0,0,0,0,0,0,0,0,0,0,0,0,0,0,0,0,0,0,0,0,0,0,0,0,0,0,0,0,0,0,0,0,0,
2026-05-29,09:36:09.140,8.21,100,100,0,-0.149,5.99,25,0.995,88,0,-0.013,100,100,-1.89,-8.12,0.00,1,55.415800 12.873600,7,2026-05-29 09:36:09,0,0,-1021,0,-429,0,64,36,322,0,0,-1,-1,-1,-1,-1,-1,0,-1,-1,-1,0,36,8,-1024,0,36,0,0,0,0,0,0,0,298,0,0,0,0,0,0,0,0,0,0,0,0,0,0,0,0,0,0,0,0,0,0,0,0,0,0,0,0,0,0,0,0,0,0,0,0,0,0,0,0,0,0,0,0,0,0,0,0,0,0,0,
2026-05-29,09:36:09.250,8.21,100,100,0,-0.149,5.99,25,0.995,88,0,-0.013,100,100,-1.89,-8.12,0.00,1,55.415800 12.873600,7,2026-05-29 09:36:09,0,0,-1021,0,-429,0,63,35,322,0,0,-1,-1,-1,-1,-1,-1,0,-1,-1,-1,0,36,8,-1024,0,36,0,0,0,0,0,0,0,297,0,0,0,0,0,0,0,0,0,0,0,0,0,0,0,0,0,0,0,0,0,0,0,0,0,0,0,0,0,0,0,0,0,0,0,0,0,0,0,0,0,0,0,0,0,0,0,0,0,0,0,
2026-05-29,09:36:09.370,8.21,100,100,0,-0.148,5.99,25,0.993,88,0,-0.011,100,100,-1.92,-8.15,0.00,1,55.415800 12.873600,7,2026-05-29 09:36:09,0,0,-1021,0,-430,2,64,35,322,0,0,-1,-1,-1,-1,-1,-1,0,-1,-1,-1,0,36,8,-1024,0,36,0,0,0,0,0,0,0,297,0,0,0,0,0,0,0,0,0,0,0,0,0,0,0,0,0,0,0,0,0,0,0,0,0,0,0,0,0,0,0,0,0,0,0,0,0,0,0,0,0,0,0,0,0,0,0,0,0,0,0,
2026-05-29,09:36:09.480,8.21,100,100,0,-0.151,6.00,25,1.007,88,0,-0.012,100,100,-1.93,-8.19,0.00,0,55.415800 12.873600,7,2026-05-29 09:36:09,0,0,-1021,0,-430,1,64,36,322,0,0,-1,-1,-1,-1,-1,-1,0,-1,-1,-1,0,36,8,-1024,0,36,0,0,0,0,0,0,0,297,0,0,0,0,0,0,0,0,0,0,0,0,0,0,0,0,0,0,0,0,0,0,0,0,0,0,0,0,0,0,0,0,0,0,0,0,0,0,0,0,0,0,0,0,0,0,0,0,0,0,0,
2026-05-29,09:36:09.590,8.21,100,100,0,-0.151,5.97,25,1.007,89,0,-0.012,100,100,-1.93,-8.19,0.00,0,55.415800 12.873600,7,2026-05-29 09:36:09,0,0,-1021,0,-430,0,64,37,322,0,0,-1,-1,-1,-1,-1,-1,0,-1,-1,-1,0,36,8,-1024,0,36,0,0,0,0,0,0,0,297,0,0,0,0,0,0,0,0,0,0,0,0,0,0,0,0,0,0,0,0,0,0,0,0,0,0,0,0,0,0,0,0,0,0,0,0,0,0,0,0,0,0,0,0,0,0,0,0,0,0,0,
2026-05-29,09:36:09.710,8.21,100,100,0,-0.154,5.98,25,0.993,89,0,-0.013,100,100,-1.93,-8.21,0.00,0,55.415800 12.873600,7,2026-05-29 09:36:09,0,0,-1021,0,-430,0,64,35,322,0,0,-1,-1,-1,-1,-1,-1,0,-1,-1,-1,0,36,8,-1024,0,36,0,0,0,0,0,0,0,297,0,0,0,0,0,0,0,0,0,0,0,0,0,0,0,0,0,0,0,0,0,0,0,0,0,0,0,0,0,0,0,0,0,0,0,0,0,0,0,0,0,0,0,0,0,0,0,0,0,0,0,
2026-05-29,09:36:09.830,8.21,100,100,0,-0.149,5.99,25,0.995,89,0,-0.014,100,100,-1.95,-8.24,0.00,0,55.415800 12.873600,7,2026-05-29 09:36:09,0,0,-1021,0,-430,0,64,35,322,0,0,-1,-1,-1,-1,-1,-1,0,-1,-1,-1,0,36,8,-1024,0,36,0,0,0,0,0,0,0,297,0,0,0,0,0,0,0,0,0,0,0,0,0,0,0,0,0,0,0,0,0,0,0,0,0,0,0,0,0,0,0,0,0,0,0,0,0,0,0,0,0,0,0,0,0,0,0,0,0,0,0,
2026-05-29,09:36:09.940,8.21,100,100,0,-0.149,5.99,25,0.995,88,0,-0.014,100,100,-1.95,-8.24,0.00,0,55.415800 12.873600,7,2026-05-29 09:36:09,0,0,-1021,0,-429,1,65,34,322,0,0,-1,-1,-1,-1,-1,-1,0,-1,-1,-1,0,36,8,-1024,0,36,0,0,0,0,0,0,0,297,0,0,0,0,0,0,0,0,0,0,0,0,0,0,0,0,0,0,0,0,0,0,0,0,0,0,0,0,0,0,0,0,0,0,0,0,0,0,0,0,0,0,0,0,0,0,0,0,0,0,0,
2026-05-29,09:36:10.060,8.21,100,100,0,-0.150,5.99,25,0.993,86,0,-0.011,100,100,-1.96,-8.26,0.00,0,55.415800 12.873600,7,2026-05-29 09:36:10,0,0,-1021,0,-430,1,64,36,322,0,0,-1,-1,-1,-1,-1,-1,0,-1,-1,-1,0,36,8,-1024,0,36,0,0,0,0,0,0,0,297,0,0,0,0,0,0,0,0,0,0,0,0,0,0,0,0,0,0,0,0,0,0,0,0,0,0,0,0,0,0,0,0,0,0,0,0,0,0,0,0,0,0,0,0,0,0,0,0,0,0,0,
2026-05-29,09:36:10.180,8.21,100,100,0,-0.150,6.00,25,1.002,86,0,-0.015,100,100,-1.95,-8.28,0.00,0,55.415800 12.873600,7,2026-05-29 09:36:10,0,0,-1022,0,-430,1,65,35,322,0,0,-1,-1,-1,-1,-1,-1,0,-1,-1,-1,0,36,8,-1024,0,36,0,0,0,0,0,0,0,297,0,0,0,0,0,0,0,0,0,0,0,0,0,0,0,0,0,0,0,0,0,0,0,0,0,0,0,0,0,0,0,0,0,0,0,0,0,0,0,0,0,0,0,0,0,0,0,0,0,0,0,
2026-05-29,09:36:10.290,8.21,100,100,0,-0.150,6.00,25,1.002,87,0,-0.015,100,100,-1.95,-8.28,0.00,0,55.415800 12.873600,7,2026-05-29 09:36:10,0,0,-1022,0,-430,0,64,36,322,0,0,-1,-1,-1,-1,-1,-1,0,-1,-1,-1,0,36,8,-1024,0,36,0,0,0,0,0,0,0,297,0,0,0,0,0,0,0,0,0,0,0,0,0,0,0,0,0,0,0,0,0,0,0,0,0,0,0,0,0,0,0,0,0,0,0,0,0,0,0,0,0,0,0,0,0,0,0,0,0,0,0,
2026-05-29,09:36:10.410,8.20,100,100,0,-0.150,6.00,25,0.999,87,0,-0.015,100,100,-1.96,-8.30,0.00,0,55.415800 12.873600,7,2026-05-29 09:36:10,0,0,-1022,0,-430,0,64,35,322,0,0,-1,-1,-1,-1,-1,-1,0,-1,-1,-1,0,36,8,-1024,0,36,0,0,0,0,0,0,0,297,0,0,0,0,0,0,0,0,0,0,0,0,0,0,0,0,0,0,0,0,0,0,0,0,0,0,0,0,0,0,0,0,0,0,0,0,0,0,0,0,0,0,0,0,0,0,0,0,0,0,0,
2026-05-29,09:36:10.520,8.21,100,100,0,-0.151,6.00,25,1.005,87,0,-0.015,100,100,-1.96,-8.32,0.00,0,55.415800 12.873600,7,2026-05-29 09:36:10,0,0,-1021,0,-430,0,64,37,322,0,0,-1,-1,-1,-1,-1,-1,0,-1,-1,-1,0,36,8,-1024,0,36,0,0,0,0,0,0,0,297,0,0,0,0,0,0,0,0,0,0,0,0,0,0,0,0,0,0,0,0,0,0,0,0,0,0,0,0,0,0,0,0,0,0,0,0,0,0,0,0,0,0,0,0,0,0,0,0,0,0,0,
2026-05-29,09:36:10.630,8.21,100,100,0,-0.151,5.97,25,1.005,86,0,-0.015,100,100,-1.96,-8.32,0.00,0,55.415800 12.873600,7,2026-05-29 09:36:10,0,0,-1021,0,-430,0,64,37,322,0,0,-1,-1,-1,-1,-1,-1,0,-1,-1,-1,0,36,8,-1024,0,36,0,0,0,0,0,0,0,297,0,0,0,0,0,0,0,0,0,0,0,0,0,0,0,0,0,0,0,0,0,0,0,0,0,0,0,0,0,0,0,0,0,0,0,0,0,0,0,0,0,0,0,0,0,0,0,0,0,0,0,
2026-05-29,09:36:10.750,8.20,100,100,0,-0.151,5.98,25,0.989,86,0,-0.012,100,100,-1.97,-8.34,0.00,0,55.415800 12.873600,7,2026-05-29 09:36:10,0,0,-1021,0,-430,0,64,35,322,0,0,-1,-1,-1,-1,-1,-1,0,-1,-1,-1,0,36,8,-1024,0,36,0,0,0,0,0,0,0,297,0,0,0,0,0,0,0,0,0,0,0,0,0,0,0,0,0,0,0,0,0,0,0,0,0,0,0,0,0,0,0,0,0,0,0,0,0,0,0,0,0,0,0,0,0,0,0,0,0,0,0,
2026-05-29,09:36:10.870,8.21,100,100,0,-0.148,5.98,25,0.996,86,0,-0.013,100,100,-1.98,-8.35,0.00,0,55.415800 12.873600,7,2026-05-29 09:36:10,0,0,-1021,0,-430,0,64,35,322,0,0,-1,-1,-1,-1,-1,-1,0,-1,-1,-1,0,36,8,-1024,0,36,0,0,0,0,0,0,0,297,0,0,0,0,0,0,0,0,0,0,0,0,0,0,0,0,0,0,0,0,0,0,0,0,0,0,0,0,0,0,0,0,0,0,0,0,0,0,0,0,0,0,0,0,0,0,0,0,0,0,0,
2026-05-29,09:36:10.990,8.21,100,100,0,-0.151,5.99,25,0.996,85,0,-0.011,100,100,-1.99,-8.36,0.00,0,55.415800 12.873600,7,2026-05-29 09:36:10,0,0,-1021,0,-430,0,64,36,322,0,0,-1,-1,-1,-1,-1,-1,0,-1,-1,-1,0,36,8,-1024,0,36,0,0,0,0,0,0,0,297,0,0,0,0,0,0,0,0,0,0,0,0,0,0,0,0,0,0,0,0,0,0,0,0,0,0,0,0,0,0,0,0,0,0,0,0,0,0,0,0,0,0,0,0,0,0,0,0,0,0,0,
2026-05-29,09:36:11.100,8.21,100,100,0,-0.151,5.97,25,1.003,85,0,-0.011,100,100,-1.99,-8.36,0.00,0,55.415800 12.873600,7,2026-05-29 09:36:11,0,0,-1021,0,-430,0,64,35,321,0,0,-1,-1,-1,-1,-1,-1,0,-1,-1,-1,0,36,8,-1024,0,36,0,0,0,0,0,0,0,297,0,0,0,0,0,0,0,0,0,0,0,0,0,0,0,0,0,0,0,0,0,0,0,0,0,0,0,0,0,0,0,0,0,0,0,0,0,0,0,0,0,0,0,0,0,0,0,0,0,0,0,
2026-05-29,09:36:11.220,8.21,100,100,0,-0.147,5.98,25,0.995,84,0,-0.012,100,100,-1.98,-8.38,0.00,0,55.415800 12.873600,7,2026-05-29 09:36:11,0,0,-1021,0,-430,0,64,36,322,0,0,-1,-1,-1,-1,-1,-1,0,-1,-1,-1,0,36,8,-1024,0,36,0,0,0,0,0,0,0,297,0,0,0,0,0,0,0,0,0,0,0,0,0,0,0,0,0,0,0,0,0,0,0,0,0,0,0,0,0,0,0,0,0,0,0,0,0,0,0,0,0,0,0,0,0,0,0,0,0,0,0,
2026-05-29,09:36:11.340,8.20,100,100,0,-0.152,5.99,25,0.995,85,0,-0.014,100,100,-1.98,-8.39,0.00,0,55.415800 12.873600,7,2026-05-29 09:36:11,0,0,-1021,0,-430,0,64,37,322,0,0,-1,-1,-1,-1,-1,-1,0,-1,-1,-1,0,36,8,-1024,0,36,0,0,0,0,0,0,0,297,0,0,0,0,0,0,0,0,0,0,0,0,0,0,0,0,0,0,0,0,0,0,0,0,0,0,0,0,0,0,0,0,0,0,0,0,0,0,0,0,0,0,0,0,0,0,0,0,0,0,0,
2026-05-29,09:36:11.450,8.20,100,100,0,-0.152,5.99,25,0.995,84,0,-0.014,100,100,-1.98,-8.39,0.00,0,55.415800 12.873600,7,2026-05-29 09:36:11,0,0,-1021,0,-430,2,64,35,322,0,0,-1,-1,-1,-1,-1,-1,0,-1,-1,-1,0,36,8,-1024,0,36,0,0,0,0,0,0,0,297,0,0,0,0,0,0,0,0,0,0,0,0,0,0,0,0,0,0,0,0,0,0,0,0,0,0,0,0,0,0,0,0,0,0,0,0,0,0,0,0,0,0,0,0,0,0,0,0,0,0,0,
2026-05-29,09:36:11.560,8.20,100,100,0,-0.147,5.97,25,0.990,85,0,-0.013,100,100,-1.99,-8.40,0.00,0,55.415800 12.873600,7,2026-05-29 09:36:11,0,0,-1021,0,-429,1,64,36,321,0,0,-1,-1,-1,-1,-1,-1,0,-1,-1,-1,0,36,8,-1024,0,36,0,0,0,0,0,0,0,298,0,0,0,0,0,0,0,0,0,0,0,0,0,0,0,0,0,0,0,0,0,0,0,0,0,0,0,0,0,0,0,0,0,0,0,0,0,0,0,0,0,0,0,0,0,0,0,0,0,0,0,
2026-05-29,09:36:11.670,8.20,100,100,0,-0.151,5.97,25,0.996,86,0,-0.012,100,100,-1.99,-8.40,0.00,0,55.415800 12.873600,7,2026-05-29 09:36:11,0,0,-1021,0,-430,0,64,34,322,0,0,-1,-1,-1,-1,-1,-1,0,-1,-1,-1,0,36,8,-1024,0,36,0,0,0,0,0,0,0,297,0,0,0,0,0,0,0,0,0,0,0,0,0,0,0,0,0,0,0,0,0,0,0,0,0,0,0,0,0,0,0,0,0,0,0,0,0,0,0,0,0,0,0,0,0,0,0,0,0,0,0,
2026-05-29,09:36:11.790,8.20,100,100,0,-0.151,5.96,25,0.996,87,0,-0.012,100,100,-2.01,-8.40,0.00,0,55.415800 12.873600,7,2026-05-29 09:36:11,0,0,-1021,0,-430,0,64,35,322,0,0,-1,-1,-1,-1,-1,-1,0,-1,-1,-1,0,36,8,-1024,0,36,0,0,0,0,0,0,0,297,0,0,0,0,0,0,0,0,0,0,0,0,0,0,0,0,0,0,0,0,0,0,0,0,0,0,0,0,0,0,0,0,0,0,0,0,0,0,0,0,0,0,0,0,0,0,0,0,0,0,0,
2026-05-29,09:36:11.910,8.21,100,100,0,-0.150,5.97,25,0.993,88,0,-0.013,100,100,-2.01,-8.41,0.00,0,55.415800 12.873600,7,2026-05-29 09:36:11,0,0,-1021,0,-430,0,64,36,322,0,0,-1,-1,-1,-1,-1,-1,0,-1,-1,-1,0,36,8,-1024,0,36,0,0,0,0,0,0,0,297,0,0,0,0,0,0,0,0,0,0,0,0,0,0,0,0,0,0,0,0,0,0,0,0,0,0,0,0,0,0,0,0,0,0,0,0,0,0,0,0,0,0,0,0,0,0,0,0,0,0,0,
2026-05-29,09:36:12.030,8.21,100,100,0,-0.146,5.98,25,0.995,89,0,-0.013,100,100,-2.01,-8.42,0.00,0,55.415800 12.873600,6,2026-05-29 09:36:12,0,0,-1022,0,-430,0,64,36,322,0,0,-1,-1,-1,-1,-1,-1,0,-1,-1,-1,0,36,8,-1024,0,36,0,0,0,0,0,0,0,297,0,0,0,0,0,0,0,0,0,0,0,0,0,0,0,0,0,0,0,0,0,0,0,0,0,0,0,0,0,0,0,0,0,0,0,0,0,0,0,0,0,0,0,0,0,0,0,0,0,0,0,
2026-05-29,09:36:12.140,8.20,100,100,0,-0.146,5.99,25,0.995,88,0,-0.013,100,100,-2.01,-8.42,0.00,0,55.415800 12.873600,6,2026-05-29 09:36:12,0,0,-1022,0,-430,0,64,35,322,0,0,-1,-1,-1,-1,-1,-1,0,-1,-1,-1,0,36,8,-1024,0,36,0,0,0,0,0,0,0,297,0,0,0,0,0,0,0,0,0,0,0,0,0,0,0,0,0,0,0,0,0,0,0,0,0,0,0,0,0,0,0,0,0,0,0,0,0,0,0,0,0,0,0,0,0,0,0,0,0,0,0,
2026-05-29,09:36:12.260,8.20,100,100,0,-0.153,5.99,25,0.991,88,0,-0.014,100,100,-2.04,-8.43,0.00,0,55.415800 12.873600,6,2026-05-29 09:36:12,0,0,-1021,0,-430,0,64,34,322,0,0,-1,-1,-1,-1,-1,-1,0,-1,-1,-1,0,36,8,-1024,0,36,0,0,0,0,0,0,0,297,0,0,0,0,0,0,0,0,0,0,0,0,0,0,0,0,0,0,0,0,0,0,0,0,0,0,0,0,0,0,0,0,0,0,0,0,0,0,0,0,0,0,0,0,0,0,0,0,0,0,0,
2026-05-29,09:36:12.390,8.21,100,100,0,-0.148,5.97,25,1.004,88,0,-0.013,100,100,-2.04,-8.43,0.00,0,55.415800 12.873600,6,2026-05-29 09:36:12,0,0,-1021,0,-430,0,65,36,322,0,0,-1,-1,-1,-1,-1,-1,0,-1,-1,-1,0,36,8,-1024,0,36,0,0,0,0,0,0,0,297,0,0,0,0,0,0,0,0,0,0,0,0,0,0,0,0,0,0,0,0,0,0,0,0,0,0,0,0,0,0,0,0,0,0,0,0,0,0,0,0,0,0,0,0,0,0,0,0,0,0,0,
2026-05-29,09:36:12.520,8.21,100,100,0,-0.150,5.98,25,1.000,88,0,-0.013,100,100,-2.05,-8.44,0.00,0,55.415800 12.873600,6,2026-05-29 09:36:12,0,0,-1021,0,-430,0,64,36,322,0,0,-1,-1,-1,-1,-1,-1,0,-1,-1,-1,0,36,8,-1024,0,36,0,0,0,0,0,0,0,297,0,0,0,0,0,0,0,0,0,0,0,0,0,0,0,0,0,0,0,0,0,0,0,0,0,0,0,0,0,0,0,0,0,0,0,0,0,0,0,0,0,0,0,0,0,0,0,0,0,0,0,
2026-05-29,09:36:12.640,8.21,100,100,0,-0.150,5.99,25,1.000,88,0,-0.013,100,100,-2.05,-8.44,0.00,0,55.415800 12.873600,6,2026-05-29 09:36:12,0,0,-1021,0,-430,0,64,36,322,0,0,-1,-1,-1,-1,-1,-1,0,-1,-1,-1,0,36,8,-1024,0,36,0,0,0,0,0,0,0,297,0,0,0,0,0,0,0,0,0,0,0,0,0,0,0,0,0,0,0,0,0,0,0,0,0,0,0,0,0,0,0,0,0,0,0,0,0,0,0,0,0,0,0,0,0,0,0,0,0,0,0,
2026-05-29,09:36:12.750,8.21,100,100,0,-0.152,5.99,25,0.998,89,0,-0.014,100,100,-2.01,-8.44,0.00,0,55.415800 12.873600,6,2026-05-29 09:36:12,0,0,-1021,0,-429,0,64,36,321,0,0,-1,-1,-1,-1,-1,-1,0,-1,-1,-1,0,36,8,-1024,0,36,0,0,0,0,0,0,0,297,0,0,0,0,0,0,0,0,0,0,0,0,0,0,0,0,0,0,0,0,0,0,0,0,0,0,0,0,0,0,0,0,0,0,0,0,0,0,0,0,0,0,0,0,0,0,0,0,0,0,0,
2026-05-29,09:36:12.870,8.21,100,100,0,-0.150,5.99,25,0.995,89,0,-0.013,100,100,-2.01,-8.45,0.00,0,55.415800 12.873600,6,2026-05-29 09:36:12,0,0,-1021,0,-430,0,64,36,322,0,0,-1,-1,-1,-1,-1,-1,0,-1,-1,-1,0,36,8,-1024,0,36,0,0,0,0,0,0,0,297,0,0,0,0,0,0,0,0,0,0,0,0,0,0,0,0,0,0,0,0,0,0,0,0,0,0,0,0,0,0,0,0,0,0,0,0,0,0,0,0,0,0,0,0,0,0,0,0,0,0,0,
2026-05-29,09:36:12.990,8.20,100,100,0,-0.150,6.00,25,0.995,89,0,-0.013,100,100,-2.01,-8.45,0.00,0,55.415800 12.873600,6,2026-05-29 09:36:12,0,0,-1021,0,-430,0,64,36,322,0,0,-1,-1,-1,-1,-1,-1,0,-1,-1,-1,0,36,8,-1024,0,36,0,0,0,0,0,0,0,297,0,0,0,0,0,0,0,0,0,0,0,0,0,0,0,0,0,0,0,0,0,0,0,0,0,0,0,0,0,0,0,0,0,0,0,0,0,0,0,0,0,0,0,0,0,0,0,0,0,0,0,
2026-05-29,09:36:13.100,8.20,100,100,0,-0.147,5.97,25,0.988,91,0,-0.012,100,100,-2.00,-8.46,0.00,0,55.415800 12.873600,6,2026-05-29 09:36:13,0,0,-1021,0,-430,0,65,36,321,0,0,-1,-1,-1,-1,-1,-1,0,-1,-1,-1,0,36,8,-1024,0,36,0,0,0,0,0,0,0,297,0,0,0,0,0,0,0,0,0,0,0,0,0,0,0,0,0,0,0,0,0,0,0,0,0,0,0,0,0,0,0,0,0,0,0,0,0,0,0,0,0,0,0,0,0,0,0,0,0,0,0,
2026-05-29,09:36:13.220,8.21,100,100,0,-0.149,5.98,25,0.996,90,0,-0.013,100,100,-2.01,-8.46,0.00,0,55.415800 12.873600,6,2026-05-29 09:36:13,0,0,-1021,0,-430,1,65,36,322,0,0,-1,-1,-1,-1,-1,-1,0,-1,-1,-1,0,36,8,-1024,0,36,0,0,0,0,0,0,0,297,0,0,0,0,0,0,0,0,0,0,0,0,0,0,0,0,0,0,0,0,0,0,0,0,0,0,0,0,0,0,0,0,0,0,0,0,0,0,0,0,0,0,0,0,0,0,0,0,0,0,0,
2026-05-29,09:36:13.340,8.21,100,100,0,-0.152,5.98,25,0.996,90,0,-0.013,100,100,-2.01,-8.46,0.00,0,55.415800 12.873600,6,2026-05-29 09:36:13,0,0,-1022,0,-430,0,64,35,322,0,0,-1,-1,-1,-1,-1,-1,0,-1,-1,-1,0,36,8,-1024,0,36,0,0,0,0,0,0,0,297,0,0,0,0,0,0,0,0,0,0,0,0,0,0,0,0,0,0,0,0,0,0,0,0,0,0,0,0,0,0,0,0,0,0,0,0,0,0,0,0,0,0,0,0,0,0,0,0,0,0,0,
2026-05-29,09:36:13.450,8.21,100,100,0,-0.152,5.99,25,0.998,91,0,-0.012,100,100,-2.02,-8.47,0.00,0,55.415800 12.873600,6,2026-05-29 09:36:13,0,0,-1021,0,-430,0,64,36,321,0,0,-1,-1,-1,-1,-1,-1,0,-1,-1,-1,0,36,8,-1024,0,36,0,0,0,0,0,0,0,297,0,0,0,0,0,0,0,0,0,0,0,0,0,0,0,0,0,0,0,0,0,0,0,0,0,0,0,0,0,0,0,0,0,0,0,0,0,0,0,0,0,0,0,0,0,0,0,0,0,0,0,
2026-05-29,09:36:13.560,8.21,100,100,0,-0.145,5.99,25,1.007,90,0,-0.030,100,100,-2.03,-8.47,0.00,0,55.415800 12.873600,6,2026-05-29 09:36:13,0,0,-1021,0,-429,0,64,36,322,0,0,-1,-1,-1,-1,-1,-1,0,-1,-1,-1,0,36,8,-1024,0,36,0,0,0,0,0,0,0,297,0,0,0,0,0,0,0,0,0,0,0,0,0,0,0,0,0,0,0,0,0,0,0,0,0,0,0,0,0,0,0,0,0,0,0,0,0,0,0,0,0,0,0,0,0,0,0,0,0,0,0,
2026-05-29,09:36:13.680,8.21,100,100,0,-0.150,6.00,25,1.006,89,0,-0.006,100,100,-2.03,-8.47,0.00,0,55.415800 12.873600,6,2026-05-29 09:36:13,0,0,-1022,0,-429,1,64,36,321,0,0,-1,-1,-1,-1,-1,-1,0,-1,-1,-1,0,36,8,-1024,0,36,0,0,0,0,0,0,0,298,0,0,0,0,0,0,0,0,0,0,0,0,0,0,0,0,0,0,0,0,0,0,0,0,0,0,0,0,0,0,0,0,0,0,0,0,0,0,0,0,0,0,0,0,0,0,0,0,0,0,0,
2026-05-29,09:36:13.790,8.20,100,100,0,-0.150,6.00,25,1.006,88,0,-0.006,100,100,-2.02,-8.48,0.00,0,55.415800 12.873600,6,2026-05-29 09:36:13,0,0,-1022,0,-430,1,65,34,322,0,0,-1,-1,-1,-1,-1,-1,0,-1,-1,-1,0,36,8,-1024,0,36,0,0,0,0,0,0,0,297,0,0,0,0,0,0,0,0,0,0,0,0,0,0,0,0,0,0,0,0,0,0,0,0,0,0,0,0,0,0,0,0,0,0,0,0,0,0,0,0,0,0,0,0,0,0,0,0,0,0,0,
2026-05-29,09:36:13.910,8.21,100,100,0,-0.185,6.00,25,1.005,88,0,0.001,100,100,-2.02,-8.48,0.00,0,55.415800 12.873600,6,2026-05-29 09:36:13,0,0,-1021,0,-430,0,64,36,321,0,0,-1,-1,-1,-1,-1,-1,0,-1,-1,-1,0,36,8,-1024,0,36,0,0,0,0,0,0,0,297,0,0,0,0,0,0,0,0,0,0,0,0,0,0,0,0,0,0,0,0,0,0,0,0,0,0,0,0,0,0,0,0,0,0,0,0,0,0,0,0,0,0,0,0,0,0,0,0,0,0,0,
2026-05-29,09:36:14.030,8.20,100,100,0,-0.142,5.97,25,1.005,89,0,-0.030,100,100,-2.02,-8.49,0.00,0,55.415800 12.873600,7,2026-05-29 09:36:14,0,0,-1021,0,-430,0,65,36,322,0,0,-1,-1,-1,-1,-1,-1,0,-1,-1,-1,0,36,8,-1024,0,36,0,0,0,0,0,0,0,297,0,0,0,0,0,0,0,0,0,0,0,0,0,0,0,0,0,0,0,0,0,0,0,0,0,0,0,0,0,0,0,0,0,0,0,0,0,0,0,0,0,0,0,0,0,0,0,0,0,0,0,
2026-05-29,09:36:14.140,8.20,100,100,0,-0.142,5.98,25,0.993,89,0,-0.030,100,100,-2.00,-8.49,0.00,0,55.415800 12.873600,7,2026-05-29 09:36:14,0,0,-1021,0,-430,0,64,36,322,0,0,-1,-1,-1,-1,-1,-1,0,-1,-1,-1,0,36,8,-1024,0,36,0,0,0,0,0,0,0,298,0,0,0,0,0,0,0,0,0,0,0,0,0,0,0,0,0,0,0,0,0,0,0,0,0,0,0,0,0,0,0,0,0,0,0,0,0,0,0,0,0,0,0,0,0,0,0,0,0,0,0,
2026-05-29,09:36:14.260,8.20,100,100,0,-0.190,5.99,25,1.001,89,0,-0.020,100,100,-2.08,-8.48,0.00,0,55.415800 12.873600,7,2026-05-29 09:36:14,0,0,-1021,0,-430,0,64,36,321,0,0,-1,-1,-1,-1,-1,-1,0,-1,-1,-1,0,36,8,-1024,0,36,0,0,0,0,0,0,0,297,0,0,0,0,0,0,0,0,0,0,0,0,0,0,0,0,0,0,0,0,0,0,0,0,0,0,0,0,0,0,0,0,0,0,0,0,0,0,0,0,0,0,0,0,0,0,0,0,0,0,0,
2026-05-29,09:36:14.380,8.20,100,100,0,-0.123,5.97,25,0.995,91,0,-0.017,100,100,-2.07,-8.49,0.00,0,55.415800 12.873600,7,2026-05-29 09:36:14,0,0,-1021,0,-430,0,65,36,322,0,0,-1,-1,-1,-1,-1,-1,0,-1,-1,-1,0,36,8,-1024,0,36,0,0,0,0,0,0,0,297,0,0,0,0,0,0,0,0,0,0,0,0,0,0,0,0,0,0,0,0,0,0,0,0,0,0,0,0,0,0,0,0,0,0,0,0,0,0,0,0,0,0,0,0,0,0,0,0,0,0,0,
2026-05-29,09:36:14.500,8.20,100,100,0,-0.123,5.95,25,0.995,92,0,-0.017,100,100,-2.07,-8.49,0.00,0,55.415800 12.873600,7,2026-05-29 09:36:14,0,0,-1021,0,-430,0,64,36,322,0,0,-1,-1,-1,-1,-1,-1,0,-1,-1,-1,0,36,8,-1024,0,36,0,0,0,0,0,0,0,297,0,0,0,0,0,0,0,0,0,0,0,0,0,0,0,0,0,0,0,0,0,0,0,0,0,0,0,0,0,0,0,0,0,0,0,0,0,0,0,0,0,0,0,0,0,0,0,0,0,0,0,
2026-05-29,09:36:14.620,8.21,100,100,0,-0.143,5.96,25,1.033,93,0,-0.012,100,100,-2.12,-8.49,0.00,0,55.415800 12.873600,7,2026-05-29 09:36:14,0,0,-1021,0,-429,0,64,37,322,0,0,-1,-1,-1,-1,-1,-1,0,-1,-1,-1,0,36,8,-1024,0,36,0,0,0,0,0,0,0,298,0,0,0,0,0,0,0,0,0,0,0,0,0,0,0,0,0,0,0,0,0,0,0,0,0,0,0,0,0,0,0,0,0,0,0,0,0,0,0,0,0,0,0,0,0,0,0,0,0,0,0,
2026-05-29,09:36:14.740,8.21,100,100,0,-0.207,5.97,25,0.980,94,0,-0.012,100,100,-1.97,-8.50,0.00,0,55.415800 12.873600,7,2026-05-29 09:36:14,0,0,-1021,0,-430,1,64,36,322,0,0,-1,-1,-1,-1,-1,-1,0,-1,-1,-1,0,36,8,-1024,0,36,0,0,0,0,0,0,0,297,0,0,0,0,0,0,0,0,0,0,0,0,0,0,0,0,0,0,0,0,0,0,0,0,0,0,0,0,0,0,0,0,0,0,0,0,0,0,0,0,0,0,0,0,0,0,0,0,0,0,0,
2026-05-29,09:36:14.850,8.21,100,100,0,-0.207,5.98,25,0.980,93,0,-0.012,100,100,-1.97,-8.50,0.00,0,55.415800 12.873600,7,2026-05-29 09:36:14,0,0,-1022,0,-430,0,65,36,322,0,0,-1,-1,-1,-1,-1,-1,0,-1,-1,-1,0,36,8,-1024,0,36,0,0,0,0,0,0,0,297,0,0,0,0,0,0,0,0,0,0,0,0,0,0,0,0,0,0,0,0,0,0,0,0,0,0,0,0,0,0,0,0,0,0,0,0,0,0,0,0,0,0,0,0,0,0,0,0,0,0,0,
2026-05-29,09:36:14.960,8.21,100,100,0,-0.178,5.94,25,0.995,93,0,-0.004,100,100,-1.99,-8.51,0.00,0,55.415800 12.873600,9,2026-05-29 09:36:14,0,0,-1022,0,-430,0,64,36,322,0,0,-1,-1,-1,-1,-1,-1,0,-1,-1,-1,0,36,8,-1024,0,36,0,0,0,0,0,0,0,297,0,0,0,0,0,0,0,0,0,0,0,0,0,0,0,0,0,0,0,0,0,0,0,0,0,0,0,0,0,0,0,0,0,0,0,0,0,0,0,0,0,0,0,0,0,0,0,0,0,0,0,
2026-05-29,09:36:15.070,8.21,100,100,0,-0.139,5.96,25,0.956,92,0,0.028,100,100,-2.00,-8.70,0.00,0,55.415800 12.873600,9,2026-05-29 09:36:15,0,0,-1021,0,-429,0,64,37,322,0,0,-1,-1,-1,-1,-1,-1,0,-1,-1,-1,0,36,8,-1024,0,36,0,0,0,0,0,0,0,298,0,0,0,0,0,0,0,0,0,0,0,0,0,0,0,0,0,0,0,0,0,0,0,0,0,0,0,0,0,0,0,0,0,0,0,0,0,0,0,0,0,0,0,0,0,0,0,0,0,0,0,
2026-05-29,09:36:15.190,8.21,100,100,0,-0.173,5.94,25,0.956,92,0,0.028,100,100,-2.00,-8.70,0.00,0,55.415800 12.873600,9,2026-05-29 09:36:15,0,0,-1021,0,-430,0,64,36,322,0,0,-1,-1,-1,-1,-1,-1,0,-1,-1,-1,0,36,8,-1024,0,36,0,0,0,0,0,0,0,297,0,0,0,0,0,0,0,0,0,0,0,0,0,0,0,0,0,0,0,0,0,0,0,0,0,0,0,0,0,0,0,0,0,0,0,0,0,0,0,0,0,0,0,0,0,0,0,0,0,0,0,
2026-05-29,09:36:15.310,8.21,100,100,0,-0.173,5.93,25,1.057,92,0,-0.010,100,100,-2.14,-8.50,0.00,0,55.415800 12.873600,9,2026-05-29 09:36:15,0,0,-1021,0,-430,0,64,37,322,0,0,-1,-1,-1,-1,-1,-1,0,-1,-1,-1,0,36,8,-1024,0,36,0,0,0,0,0,0,0,297,0,0,0,0,0,0,0,0,0,0,0,0,0,0,0,0,0,0,0,0,0,0,0,0,0,0,0,0,0,0,0,0,0,0,0,0,0,0,0,0,0,0,0,0,0,0,0,0,0,0,0,
2026-05-29,09:36:15.430,8.21,100,100,0,-0.147,5.95,25,1.001,93,0,-0.026,100,100,-1.98,-8.56,0.00,0,55.415800 12.873600,9,2026-05-29 09:36:15,0,0,-1021,0,-430,2,64,37,322,0,0,-1,-1,-1,-1,-1,-1,0,-1,-1,-1,0,36,8,-1024,0,36,0,0,0,0,0,0,0,297,0,0,0,0,0,0,0,0,0,0,0,0,0,0,0,0,0,0,0,0,0,0,0,0,0,0,0,0,0,0,0,0,0,0,0,0,0,0,0,0,0,0,0,0,0,0,0,0,0,0,0,
2026-05-29,09:36:15.540,8.21,100,100,0,-0.135,5.93,25,1.001,93,0,0.000,100,100,-1.98,-8.56,0.00,0,55.415800 12.873600,9,2026-05-29 09:36:15,0,0,-1021,0,-429,0,64,35,322,0,0,-1,-1,-1,-1,-1,-1,0,-1,-1,-1,0,36,8,-1024,0,36,0,0,0,0,0,0,0,298,0,0,0,0,0,0,0,0,0,0,0,0,0,0,0,0,0,0,0,0,0,0,0,0,0,0,0,0,0,0,0,0,0,0,0,0,0,0,0,0,0,0,0,0,0,0,0,0,0,0,0,
2026-05-29,09:36:15.650,8.21,100,100,0,-0.135,5.95,25,0.995,92,0,0.000,100,100,-2.00,-8.56,0.00,0,55.415800 12.873600,9,2026-05-29 09:36:15,0,0,-1022,0,-429,0,64,36,321,0,0,-1,-1,-1,-1,-1,-1,0,-1,-1,-1,0,36,8,-1024,0,36,0,0,0,0,0,0,0,298,0,0,0,0,0,0,0,0,0,0,0,0,0,0,0,0,0,0,0,0,0,0,0,0,0,0,0,0,0,0,0,0,0,0,0,0,0,0,0,0,0,0,0,0,0,0,0,0,0,0,0,
2026-05-29,09:36:15.770,8.21,100,100,0,-0.154,5.96,25,1.000,91,0,-0.013,100,100,-2.01,-8.56,0.00,0,55.415800 12.873600,9,2026-05-29 09:36:15,0,0,-1022,0,-430,0,65,36,321,0,0,-1,-1,-1,-1,-1,-1,0,-1,-1,-1,0,36,8,-1024,0,36,0,0,0,0,0,0,0,297,0,0,0,0,0,0,0,0,0,0,0,0,0,0,0,0,0,0,0,0,0,0,0,0,0,0,0,0,0,0,0,0,0,0,0,0,0,0,0,0,0,0,0,0,0,0,0,0,0,0,0,
2026-05-29,09:36:15.880,8.21,100,100,0,-0.147,5.94,25,1.000,90,0,-0.013,100,100,-2.01,-8.56,0.00,0,55.415800 12.873600,9,2026-05-29 09:36:15,0,0,-1021,0,-430,0,64,37,322,0,0,-1,-1,-1,-1,-1,-1,0,-1,-1,-1,0,36,8,-1024,0,36,0,0,0,0,0,0,0,297,0,0,0,0,0,0,0,0,0,0,0,0,0,0,0,0,0,0,0,0,0,0,0,0,0,0,0,0,0,0,0,0,0,0,0,0,0,0,0,0,0,0,0,0,0,0,0,0,0,0,0,
2026-05-29,09:36:16.000,8.21,100,100,0,-0.147,5.96,25,0.992,90,0,-0.006,100,100,-2.03,-8.56,0.00,0,55.415800 12.873600,10,2026-05-29 09:36:16,0,0,-1021,0,-430,1,64,36,322,0,0,-1,-1,-1,-1,-1,-1,0,-1,-1,-1,0,36,8,-1024,0,36,0,0,0,0,0,0,0,297,0,0,0,0,0,0,0,0,0,0,0,0,0,0,0,0,0,0,0,0,0,0,0,0,0,0,0,0,0,0,0,0,0,0,0,0,0,0,0,0,0,0,0,0,0,0,0,0,0,0,0,
2026-05-29,09:36:16.120,8.21,100,100,0,-0.151,5.97,25,0.990,91,0,-0.012,100,100,-2.03,-8.56,0.00,0,55.415800 12.873600,10,2026-05-29 09:36:16,0,0,-1021,0,-430,0,64,36,322,0,0,-1,-1,-1,-1,-1,-1,0,-1,-1,-1,0,36,8,-1024,0,36,0,0,0,0,0,0,0,297,0,0,0,0,0,0,0,0,0,0,0,0,0,0,0,0,0,0,0,0,0,0,0,0,0,0,0,0,0,0,0,0,0,0,0,0,0,0,0,0,0,0,0,0,0,0,0,0,0,0,0,
2026-05-29,09:36:16.240,8.21,100,100,0,-0.150,5.96,25,0.997,90,0,-0.010,100,100,-2.03,-8.55,0.00,0,55.415800 12.873600,10,2026-05-29 09:36:16,0,0,-1021,0,-430,0,64,36,322,0,0,-1,-1,-1,-1,-1,-1,0,-1,-1,-1,0,36,8,-1024,0,36,0,0,0,0,0,0,0,297,0,0,0,0,0,0,0,0,0,0,0,0,0,0,0,0,0,0,0,0,0,0,0,0,0,0,0,0,0,0,0,0,0,0,0,0,0,0,0,0,0,0,0,0,0,0,0,0,0,0,0,
2026-05-29,09:36:16.350,8.21,100,100,0,-0.150,5.97,25,0.997,90,0,-0.010,100,100,-2.03,-8.55,0.00,0,55.415800 12.873600,10,2026-05-29 09:36:16,0,0,-1021,0,-430,1,64,36,322,0,0,-1,-1,-1,-1,-1,-1,0,-1,-1,-1,0,36,8,-1024,0,36,0,0,0,0,0,0,0,297,0,0,0,0,0,0,0,0,0,0,0,0,0,0,0,0,0,0,0,0,0,0,0,0,0,0,0,0,0,0,0,0,0,0,0,0,0,0,0,0,0,0,0,0,0,0,0,0,0,0,0,
2026-05-29,09:36:16.470,8.21,100,100,0,-0.152,5.98,25,0.993,90,0,-0.010,100,100,-2.04,-8.55,0.00,0,55.415800 12.873600,10,2026-05-29 09:36:16,0,0,-1021,0,-429,0,64,35,322,0,0,-1,-1,-1,-1,-1,-1,0,-1,-1,-1,0,36,8,-1024,0,36,0,0,0,0,0,0,0,298,0,0,0,0,0,0,0,0,0,0,0,0,0,0,0,0,0,0,0,0,0,0,0,0,0,0,0,0,0,0,0,0,0,0,0,0,0,0,0,0,0,0,0,0,0,0,0,0,0,0,0,
2026-05-29,09:36:16.600,8.21,100,100,0,-0.148,5.99,25,0.997,88,0,-0.013,100,100,-2.04,-8.55,0.00,0,55.415800 12.873600,10,2026-05-29 09:36:16,0,0,-1021,0,-430,0,64,36,322,0,0,-1,-1,-1,-1,-1,-1,0,-1,-1,-1,0,36,8,-1024,0,36,0,0,0,0,0,0,0,297,0,0,0,0,0,0,0,0,0,0,0,0,0,0,0,0,0,0,0,0,0,0,0,0,0,0,0,0,0,0,0,0,0,0,0,0,0,0,0,0,0,0,0,0,0,0,0,0,0,0,0,
2026-05-29,09:36:16.710,8.21,100,100,0,-0.148,5.99,25,0.997,88,0,-0.013,100,100,-2.04,-8.55,0.00,0,55.415800 12.873600,10,2026-05-29 09:36:16,0,0,-1022,0,-430,0,64,34,322,0,0,-1,-1,-1,-1,-1,-1,0,-1,-1,-1,0,36,8,-1024,0,36,0,0,0,0,0,0,0,297,0,0,0,0,0,0,0,0,0,0,0,0,0,0,0,0,0,0,0,0,0,0,0,0,0,0,0,0,0,0,0,0,0,0,0,0,0,0,0,0,0,0,0,0,0,0,0,0,0,0,0,
2026-05-29,09:36:16.830,8.21,100,100,0,-0.152,5.99,25,0.991,89,0,-0.010,100,100,-2.02,-8.55,0.00,0,55.415800 12.873600,10,2026-05-29 09:36:16,0,0,-1021,0,-430,4,65,37,322,0,0,-1,-1,-1,-1,-1,-1,0,-1,-1,-1,0,36,8,-1024,0,36,0,0,0,0,0,0,0,297,0,0,0,0,0,0,0,0,0,0,0,0,0,0,0,0,0,0,0,0,0,0,0,0,0,0,0,0,0,0,0,0,0,0,0,0,0,0,0,0,0,0,0,0,0,0,0,0,0,0,0,
2026-05-29,09:36:16.940,8.21,100,100,0,-0.150,6.00,25,0.999,87,0,-0.013,100,100,-2.02,-8.56,0.00,0,55.415800 12.873600,10,2026-05-29 09:36:16,0,0,-1021,0,-429,2,64,36,322,0,0,-1,-1,-1,-1,-1,-1,0,-1,-1,-1,0,36,8,-1024,0,36,0,0,0,0,0,0,0,298,0,0,0,0,0,0,0,0,0,0,0,0,0,0,0,0,0,0,0,0,0,0,0,0,0,0,0,0,0,0,0,0,0,0,0,0,0,0,0,0,0,0,0,0,0,0,0,0,0,0,0,
2026-05-29,09:36:17.060,8.21,100,100,0,-0.148,5.97,25,0.999,87,0,-0.013,100,100,-2.02,-8.56,0.00,1,55.415800 12.873600,10,2026-05-29 09:36:17,0,0,-1021,0,-430,0,65,36,322,0,0,-1,-1,-1,-1,-1,-1,0,-1,-1,-1,0,36,8,-1024,0,36,0,0,0,0,0,0,0,297,0,0,0,0,0,0,0,0,0,0,0,0,0,0,0,0,0,0,0,0,0,0,0,0,0,0,0,0,0,0,0,0,0,0,0,0,0,0,0,0,0,0,0,0,0,0,0,0,0,0,0,
2026-05-29,09:36:17.180,8.21,100,100,0,-0.148,5.98,25,0.991,87,0,-0.012,100,100,-2.02,-8.56,0.00,1,55.415800 12.873600,10,2026-05-29 09:36:17,0,0,-1021,0,-429,0,64,36,322,0,0,-1,-1,-1,-1,-1,-1,0,-1,-1,-1,0,36,8,-1024,0,36,0,0,0,0,0,0,0,298,0,0,0,0,0,0,0,0,0,0,0,0,0,0,0,0,0,0,0,0,0,0,0,0,0,0,0,0,0,0,0,0,0,0,0,0,0,0,0,0,0,0,0,0,0,0,0,0,0,0,0,
2026-05-29,09:36:17.290,8.21,100,100,0,-0.152,5.98,25,0.986,87,0,-0.011,100,100,-2.02,-8.56,0.00,1,55.415800 12.873600,10,2026-05-29 09:36:17,0,0,-1021,0,-430,0,64,35,322,0,0,-1,-1,-1,-1,-1,-1,0,-1,-1,-1,0,36,8,-1024,0,36,0,0,0,0,0,0,0,297,0,0,0,0,0,0,0,0,0,0,0,0,0,0,0,0,0,0,0,0,0,0,0,0,0,0,0,0,0,0,0,0,0,0,0,0,0,0,0,0,0,0,0,0,0,0,0,0,0,0,0,
2026-05-29,09:36:17.410,8.21,100,100,0,-0.148,5.99,25,0.995,87,0,-0.011,100,100,-2.02,-8.56,0.00,1,55.415800 12.873600,10,2026-05-29 09:36:17,0,0,-1021,0,-430,1,64,36,322,0,0,-1,-1,-1,-1,-1,-1,0,-1,-1,-1,0,36,8,-1024,0,36,0,0,0,0,0,0,0,297,0,0,0,0,0,0,0,0,0,0,0,0,0,0,0,0,0,0,0,0,0,0,0,0,0,0,0,0,0,0,0,0,0,0,0,0,0,0,0,0,0,0,0,0,0,0,0,0,0,0,0,
2026-05-29,09:36:17.530,8.21,100,100,0,-0.148,5.99,25,0.995,87,0,-0.011,100,100,-2.02,-8.56,0.00,0,55.415800 12.873600,10,2026-05-29 09:36:17,0,0,-1021,0,-430,0,65,37,321,0,0,-1,-1,-1,-1,-1,-1,0,-1,-1,-1,0,36,8,-1024,0,36,0,0,0,0,0,0,0,297,0,0,0,0,0,0,0,0,0,0,0,0,0,0,0,0,0,0,0,0,0,0,0,0,0,0,0,0,0,0,0,0,0,0,0,0,0,0,0,0,0,0,0,0,0,0,0,0,0,0,0,
2026-05-29,09:36:17.650,8.21,100,100,0,-0.150,6.00,25,0.988,89,0,-0.012,100,100,-2.03,-8.56,0.00,0,55.415800 12.873600,10,2026-05-29 09:36:17,0,0,-1021,0,-430,0,64,36,322,0,0,-1,-1,-1,-1,-1,-1,0,-1,-1,-1,0,36,8,-1024,0,36,0,0,0,0,0,0,0,297,0,0,0,0,0,0,0,0,0,0,0,0,0,0,0,0,0,0,0,0,0,0,0,0,0,0,0,0,0,0,0,0,0,0,0,0,0,0,0,0,0,0,0,0,0,0,0,0,0,0,0,
2026-05-29,09:36:17.770,8.21,100,100,0,-0.149,6.00,25,0.997,89,0,-0.013,100,100,-2.04,-8.55,0.00,0,55.415800 12.873600,10,2026-05-29 09:36:17,0,0,-1021,0,-430,2,64,36,322,0,0,-1,-1,-1,-1,-1,-1,0,-1,-1,-1,0,36,8,-1024,0,36,0,0,0,0,0,0,0,297,0,0,0,0,0,0,0,0,0,0,0,0,0,0,0,0,0,0,0,0,0,0,0,0,0,0,0,0,0,0,0,0,0,0,0,0,0,0,0,0,0,0,0,0,0,0,0,0,0,0,0,
2026-05-29,09:36:17.890,8.21,100,100,0,-0.149,6.00,25,0.997,89,0,-0.013,100,100,-2.04,-8.55,0.00,0,55.415800 12.873600,10,2026-05-29 09:36:17,0,0,-1021,0,-429,1,64,35,321,0,0,-1,-1,-1,-1,-1,-1,0,-1,-1,-1,0,36,8,-1024,0,36,0,0,0,0,0,0,0,298,0,0,0,0,0,0,0,0,0,0,0,0,0,0,0,0,0,0,0,0,0,0,0,0,0,0,0,0,0,0,0,0,0,0,0,0,0,0,0,0,0,0,0,0,0,0,0,0,0,0,0,
2026-05-29,09:36:18.000,8.21,100,100,0,-0.152,6.00,25,0.993,89,0,-0.012,100,100,-2.04,-8.56,0.00,0,55.415800 12.873600,10,2026-05-29 09:36:17,0,0,-1021,0,-430,0,64,35,322,0,0,-1,-1,-1,-1,-1,-1,0,-1,-1,-1,0,36,8,-1024,0,36,0,0,0,0,0,0,0,297,0,0,0,0,0,0,0,0,0,0,0,0,0,0,0,0,0,0,0,0,0,0,0,0,0,0,0,0,0,0,0,0,0,0,0,0,0,0,0,0,0,0,0,0,0,0,0,0,0,0,0,
2026-05-29,09:36:18.120,8.21,100,100,0,-0.149,5.97,25,1.000,89,0,-0.013,100,100,-2.04,-8.56,0.00,0,55.415800 12.873600,10,2026-05-29 09:36:18,0,0,-1021,0,-430,0,64,37,322,0,0,-1,-1,-1,-1,-1,-1,0,-1,-1,-1,0,36,8,-1024,0,36,0,0,0,0,0,0,0,297,0,0,0,0,0,0,0,0,0,0,0,0,0,0,0,0,0,0,0,0,0,0,0,0,0,0,0,0,0,0,0,0,0,0,0,0,0,0,0,0,0,0,0,0,0,0,0,0,0,0,0,
2026-05-29,09:36:18.240,8.21,100,100,0,-0.148,5.95,25,0.989,88,0,-0.012,100,100,-2.04,-8.56,0.00,0,55.415800 12.873600,10,2026-05-29 09:36:18,0,0,-1021,0,-430,0,64,36,322,0,0,-1,-1,-1,-1,-1,-1,0,-1,-1,-1,0,36,8,-1024,0,36,0,0,0,0,0,0,0,297,0,0,0,0,0,0,0,0,0,0,0,0,0,0,0,0,0,0,0,0,0,0,0,0,0,0,0,0,0,0,0,0,0,0,0,0,0,0,0,0,0,0,0,0,0,0,0,0,0,0,0,
2026-05-29,09:36:18.350,8.21,100,100,0,-0.148,5.97,25,0.989,88,0,-0.012,100,100,-2.04,-8.56,0.00,0,55.415800 12.873600,10,2026-05-29 09:36:18,0,0,-1021,0,-430,1,64,35,322,0,0,-1,-1,-1,-1,-1,-1,0,-1,-1,-1,0,36,8,-1024,0,36,0,0,0,0,0,0,0,297,0,0,0,0,0,0,0,0,0,0,0,0,0,0,0,0,0,0,0,0,0,0,0,0,0,0,0,0,0,0,0,0,0,0,0,0,0,0,0,0,0,0,0,0,0,0,0,0,0,0,0,
2026-05-29,09:36:18.470,8.21,100,100,0,-0.149,5.97,25,0.995,88,0,-0.012,100,100,-2.03,-8.55,0.00,0,55.415800 12.873600,10,2026-05-29 09:36:18,0,0,-1021,0,-430,0,64,36,322,0,0,-1,-1,-1,-1,-1,-1,0,-1,-1,-1,0,36,8,-1024,0,36,0,0,0,0,0,0,0,297,0,0,0,0,0,0,0,0,0,0,0,0,0,0,0,0,0,0,0,0,0,0,0,0,0,0,0,0,0,0,0,0,0,0,0,0,0,0,0,0,0,0,0,0,0,0,0,0,0,0,0,
2026-05-29,09:36:18.590,8.21,100,100,0,-0.151,5.99,25,1.001,86,0,-0.014,100,100,-2.03,-8.55,0.00,0,55.415800 12.873600,10,2026-05-29 09:36:18,0,0,-1021,0,-430,0,64,36,322,0,0,-1,-1,-1,-1,-1,-1,0,-1,-1,-1,0,36,8,-1024,0,36,0,0,0,0,0,0,0,297,0,0,0,0,0,0,0,0,0,0,0,0,0,0,0,0,0,0,0,0,0,0,0,0,0,0,0,0,0,0,0,0,0,0,0,0,0,0,0,0,0,0,0,0,0,0,0,0,0,0,0,
2026-05-29,09:36:18.700,8.21,100,100,0,-0.151,5.99,25,1.001,85,0,-0.014,100,100,-2.03,-8.55,0.00,0,55.415800 12.873600,10,2026-05-29 09:36:18,0,0,-1022,0,-430,0,65,36,321,0,0,-1,-1,-1,-1,-1,-1,0,-1,-1,-1,0,36,8,-1024,0,36,0,0,0,0,0,0,0,297,0,0,0,0,0,0,0,0,0,0,0,0,0,0,0,0,0,0,0,0,0,0,0,0,0,0,0,0,0,0,0,0,0,0,0,0,0,0,0,0,0,0,0,0,0,0,0,0,0,0,0,
2026-05-29,09:36:18.810,8.21,100,100,0,-0.151,5.99,25,0.995,82,0,-0.013,100,100,-2.03,-8.55,0.00,0,55.415800 12.873600,10,2026-05-29 09:36:18,0,0,-1021,0,-430,0,64,36,322,0,0,-1,-1,-1,-1,-1,-1,0,-1,-1,-1,0,36,8,-1024,0,36,0,0,0,0,0,0,0,297,0,0,0,0,0,0,0,0,0,0,0,0,0,0,0,0,0,0,0,0,0,0,0,0,0,0,0,0,0,0,0,0,0,0,0,0,0,0,0,0,0,0,0,0,0,0,0,0,0,0,0,
2026-05-29,09:36:18.930,8.21,100,100,0,-0.150,5.99,25,0.990,82,0,-0.011,99,100,-2.04,-8.55,0.00,0,55.415800 12.873600,10,2026-05-29 09:36:18,0,0,-1021,0,-429,0,64,35,322,0,0,-1,-1,-1,-1,-1,-1,0,-1,-1,-1,0,36,8,-1024,0,36,0,0,0,0,0,0,0,298,0,0,0,0,0,0,0,0,0,0,0,0,0,0,0,0,0,0,0,0,0,0,0,0,0,0,0,0,0,0,0,0,0,0,0,0,0,0,0,0,0,0,0,0,0,0,0,0,0,0,0,
2026-05-29,09:36:19.040,8.21,100,100,0,-0.150,6.00,25,0.990,82,0,-0.011,99,100,-2.04,-8.55,0.00,0,55.415800 12.873600,9,2026-05-29 09:36:19,0,0,-1022,0,-430,0,64,36,322,0,0,-1,-1,-1,-1,-1,-1,0,-1,-1,-1,0,36,8,-1024,0,36,0,0,0,0,0,0,0,297,0,0,0,0,0,0,0,0,0,0,0,0,0,0,0,0,0,0,0,0,0,0,0,0,0,0,0,0,0,0,0,0,0,0,0,0,0,0,0,0,0,0,0,0,0,0,0,0,0,0,0,
2026-05-29,09:36:19.160,8.21,100,100,0,-0.152,5.97,25,0.991,83,0,-0.013,99,100,-2.04,-8.55,0.00,0,55.415800 12.873600,9,2026-05-29 09:36:19,0,0,-1021,0,-430,0,64,37,322,0,0,-1,-1,-1,-1,-1,-1,0,-1,-1,-1,0,36,8,-1024,0,36,0,0,0,0,0,0,0,297,0,0,0,0,0,0,0,0,0,0,0,0,0,0,0,0,0,0,0,0,0,0,0,0,0,0,0,0,0,0,0,0,0,0,0,0,0,0,0,0,0,0,0,0,0,0,0,0,0,0,0,
2026-05-29,09:36:19.280,8.21,100,100,0,-0.149,5.98,25,0.999,84,0,-0.011,99,100,-2.03,-8.55,0.00,0,55.415800 12.873600,9,2026-05-29 09:36:19,0,0,-1021,0,-430,0,64,35,322,0,0,-1,-1,-1,-1,-1,-1,0,-1,-1,-1,0,36,8,-1024,0,36,0,0,0,0,0,0,0,297,0,0,0,0,0,0,0,0,0,0,0,0,0,0,0,0,0,0,0,0,0,0,0,0,0,0,0,0,0,0,0,0,0,0,0,0,0,0,0,0,0,0,0,0,0,0,0,0,0,0,0,
2026-05-29,09:36:19.390,8.21,100,100,0,-0.149,5.96,25,0.999,84,0,-0.011,99,100,-2.03,-8.55,0.00,0,55.415800 12.873600,9,2026-05-29 09:36:19,0,0,-1021,0,-430,0,64,37,322,0,0,-1,-1,-1,-1,-1,-1,0,-1,-1,-1,0,36,8,-1024,0,36,0,0,0,0,0,0,0,297,0,0,0,0,0,0,0,0,0,0,0,0,0,0,0,0,0,0,0,0,0,0,0,0,0,0,0,0,0,0,0,0,0,0,0,0,0,0,0,0,0,0,0,0,0,0,0,0,0,0,0,
2026-05-29,09:36:19.510,8.21,100,100,0,-0.150,5.97,25,0.999,86,0,-0.012,99,100,-2.02,-8.55,0.00,0,55.415800 12.873600,9,2026-05-29 09:36:19,0,0,-1021,0,-430,0,64,37,322,0,0,-1,-1,-1,-1,-1,-1,0,-1,-1,-1,0,36,8,-1024,0,36,0,0,0,0,0,0,0,297,0,0,0,0,0,0,0,0,0,0,0,0,0,0,0,0,0,0,0,0,0,0,0,0,0,0,0,0,0,0,0,0,0,0,0,0,0,0,0,0,0,0,0,0,0,0,0,0,0,0,0,
2026-05-29,09:36:19.640,8.21,100,100,0,-0.152,5.98,25,0.987,86,0,-0.012,99,100,-2.02,-8.55,0.00,0,55.415800 12.873600,9,2026-05-29 09:36:19,0,0,-1022,0,-430,1,64,37,322,0,0,-1,-1,-1,-1,-1,-1,0,-1,-1,-1,0,36,8,-1024,0,36,0,0,0,0,0,0,0,297,0,0,0,0,0,0,0,0,0,0,0,0,0,0,0,0,0,0,0,0,0,0,0,0,0,0,0,0,0,0,0,0,0,0,0,0,0,0,0,0,0,0,0,0,0,0,0,0,0,0,0,
2026-05-29,09:36:19.750,8.21,100,100,0,-0.152,5.96,25,0.987,86,0,-0.012,99,100,-2.02,-8.55,0.00,0,55.415800 12.873600,9,2026-05-29 09:36:19,0,0,-1021,0,-429,0,65,37,321,0,0,-1,-1,-1,-1,-1,-1,0,-1,-1,-1,0,36,8,-1024,0,36,0,0,0,0,0,0,0,298,0,0,0,0,0,0,0,0,0,0,0,0,0,0,0,0,0,0,0,0,0,0,0,0,0,0,0,0,0,0,0,0,0,0,0,0,0,0,0,0,0,0,0,0,0,0,0,0,0,0,0,
2026-05-29,09:36:19.870,8.21,100,100,0,-0.148,5.95,25,0.998,86,0,-0.012,100,100,-2.03,-8.55,0.00,0,55.415800 12.873600,9,2026-05-29 09:36:19,0,0,-1021,0,-430,3,64,37,322,0,0,-1,-1,-1,-1,-1,-1,0,-1,-1,-1,0,36,8,-1024,0,36,0,0,0,0,0,0,0,297,0,0,0,0,0,0,0,0,0,0,0,0,0,0,0,0,0,0,0,0,0,0,0,0,0,0,0,0,0,0,0,0,0,0,0,0,0,0,0,0,0,0,0,0,0,0,0,0,0,0,0,
2026-05-29,09:36:19.990,8.21,100,100,0,-0.151,5.97,25,0.995,86,0,-0.013,100,100,-2.04,-8.55,0.00,0,55.415800 12.873600,9,2026-05-29 09:36:19,0,0,-1021,0,-430,0,65,37,322,0,0,-1,-1,-1,-1,-1,-1,0,-1,-1,-1,0,36,8,-1024,0,36,0,0,0,0,0,0,0,297,0,0,0,0,0,0,0,0,0,0,0,0,0,0,0,0,0,0,0,0,0,0,0,0,0,0,0,0,0,0,0,0,0,0,0,0,0,0,0,0,0,0,0,0,0,0,0,0,0,0,0,
2026-05-29,09:36:20.110,8.21,100,100,0,-0.149,5.98,25,0.998,86,0,-0.011,100,100,-2.04,-8.55,0.00,0,55.415800 12.873600,9,2026-05-29 09:36:20,0,0,-1021,0,-430,0,64,37,322,0,0,-1,-1,-1,-1,-1,-1,0,-1,-1,-1,0,36,8,-1024,0,36,0,0,0,0,0,0,0,297,0,0,0,0,0,0,0,0,0,0,0,0,0,0,0,0,0,0,0,0,0,0,0,0,0,0,0,0,0,0,0,0,0,0,0,0,0,0,0,0,0,0,0,0,0,0,0,0,0,0,0,
2026-05-29,09:36:20.220,8.21,100,100,0,-0.149,5.98,25,0.998,86,0,-0.011,100,100,-2.03,-8.56,0.00,0,55.415800 12.873600,9,2026-05-29 09:36:20,0,0,-1021,0,-430,0,64,36,322,0,0,-1,-1,-1,-1,-1,-1,0,-1,-1,-1,0,36,8,-1024,0,36,0,0,0,0,0,0,0,297,0,0,0,0,0,0,0,0,0,0,0,0,0,0,0,0,0,0,0,0,0,0,0,0,0,0,0,0,0,0,0,0,0,0,0,0,0,0,0,0,0,0,0,0,0,0,0,0,0,0,0,
2026-05-29,09:36:20.340,8.21,100,100,0,-0.152,5.96,25,0.992,85,0,-0.012,100,100,-2.05,-8.55,0.00,0,55.415800 12.873600,9,2026-05-29 09:36:20,0,0,-1021,0,-430,0,64,35,322,0,0,-1,-1,-1,-1,-1,-1,0,-1,-1,-1,0,36,8,-1024,0,36,0,0,0,0,0,0,0,297,0,0,0,0,0,0,0,0,0,0,0,0,0,0,0,0,0,0,0,0,0,0,0,0,0,0,0,0,0,0,0,0,0,0,0,0,0,0,0,0,0,0,0,0,0,0,0,0,0,0,0,
2026-05-29,09:36:20.460,8.21,100,100,0,-0.151,5.98,25,0.993,85,0,-0.011,100,100,-2.03,-8.55,0.00,0,55.415800 12.873600,9,2026-05-29 09:36:20,0,0,-1021,0,-430,1,64,35,322,0,0,-1,-1,-1,-1,-1,-1,0,-1,-1,-1,0,36,8,-1024,0,36,0,0,0,0,0,0,0,297,0,0,0,0,0,0,0,0,0,0,0,0,0,0,0,0,0,0,0,0,0,0,0,0,0,0,0,0,0,0,0,0,0,0,0,0,0,0,0,0,0,0,0,0,0,0,0,0,0,0,0,
2026-05-29,09:36:20.570,8.21,100,100,0,-0.151,5.98,25,0.993,86,0,-0.011,100,100,-2.03,-8.55,0.00,0,55.415800 12.873600,9,2026-05-29 09:36:20,0,0,-1021,0,-430,0,64,36,322,0,0,-1,-1,-1,-1,-1,-1,0,-1,-1,-1,0,36,8,-1024,0,36,0,0,0,0,0,0,0,298,0,0,0,0,0,0,0,0,0,0,0,0,0,0,0,0,0,0,0,0,0,0,0,0,0,0,0,0,0,0,0,0,0,0,0,0,0,0,0,0,0,0,0,0,0,0,0,0,0,0,0,
2026-05-29,09:36:20.680,8.21,100,100,0,-0.147,5.96,25,0.991,86,0,-0.014,100,100,-2.03,-8.55,0.00,0,55.415800 12.873600,9,2026-05-29 09:36:20,0,0,-1021,0,-430,0,64,36,322,0,0,-1,-1,-1,-1,-1,-1,0,-1,-1,-1,0,36,8,-1024,0,36,0,0,0,0,0,0,0,297,0,0,0,0,0,0,0,0,0,0,0,0,0,0,0,0,0,0,0,0,0,0,0,0,0,0,0,0,0,0,0,0,0,0,0,0,0,0,0,0,0,0,0,0,0,0,0,0,0,0,0,
2026-05-29,09:36:20.790,8.21,100,100,0,-0.148,5.97,25,0.991,86,0,-0.013,100,100,-2.03,-8.55,0.00,0,55.415800 12.873600,9,2026-05-29 09:36:20,0,0,-1021,0,-430,0,64,36,322,0,0,-1,-1,-1,-1,-1,-1,0,-1,-1,-1,0,36,8,-1024,0,36,0,0,0,0,0,0,0,297,0,0,0,0,0,0,0,0,0,0,0,0,0,0,0,0,0,0,0,0,0,0,0,0,0,0,0,0,0,0,0,0,0,0,0,0,0,0,0,0,0,0,0,0,0,0,0,0,0,0,0,
2026-05-29,09:36:20.910,8.21,100,100,0,-0.148,5.98,25,0.991,86,0,-0.013,100,100,-2.03,-8.55,0.00,0,55.415800 12.873600,9,2026-05-29 09:36:20,0,0,-1021,0,-430,0,64,36,322,0,0,-1,-1,-1,-1,-1,-1,0,-1,-1,-1,0,36,8,-1024,0,36,0,0,0,0,0,0,0,297,0,0,0,0,0,0,0,0,0,0,0,0,0,0,0,0,0,0,0,0,0,0,0,0,0,0,0,0,0,0,0,0,0,0,0,0,0,0,0,0,0,0,0,0,0,0,0,0,0,0,0,
2026-05-29,09:36:21.030,8.21,100,100,0,-0.147,5.96,25,0.988,86,0,-0.013,100,100,-2.03,-8.56,0.00,0,55.415800 12.873600,8,2026-05-29 09:36:21,0,0,-1021,0,-430,0,64,35,322,0,0,-1,-1,-1,-1,-1,-1,0,-1,-1,-1,0,36,8,-1024,0,36,0,0,0,0,0,0,0,297,0,0,0,0,0,0,0,0,0,0,0,0,0,0,0,0,0,0,0,0,0,0,0,0,0,0,0,0,0,0,0,0,0,0,0,0,0,0,0,0,0,0,0,0,0,0,0,0,0,0,0,
2026-05-29,09:36:21.140,8.21,100,100,0,-0.151,5.97,25,0.995,86,0,-0.013,100,100,-2.03,-8.56,0.00,0,55.415800 12.873600,8,2026-05-29 09:36:21,0,0,-1021,0,-429,1,64,36,322,0,0,-1,-1,-1,-1,-1,-1,0,-1,-1,-1,0,36,8,-1024,0,36,0,0,0,0,0,0,0,298,0,0,0,0,0,0,0,0,0,0,0,0,0,0,0,0,0,0,0,0,0,0,0,0,0,0,0,0,0,0,0,0,0,0,0,0,0,0,0,0,0,0,0,0,0,0,0,0,0,0,0,
2026-05-29,09:36:21.260,8.20,100,100,0,-0.151,5.96,25,0.995,85,0,-0.013,100,100,-2.03,-8.56,0.00,0,55.415800 12.873600,8,2026-05-29 09:36:21,0,0,-1022,0,-429,1,65,36,321,0,0,-1,-1,-1,-1,-1,-1,0,-1,-1,-1,0,36,8,-1024,0,36,0,0,0,0,0,0,0,298,0,0,0,0,0,0,0,0,0,0,0,0,0,0,0,0,0,0,0,0,0,0,0,0,0,0,0,0,0,0,0,0,0,0,0,0,0,0,0,0,0,0,0,0,0,0,0,0,0,0,0,
2026-05-29,09:36:21.380,8.20,100,100,0,-0.151,5.97,25,0.987,86,0,-0.013,100,100,-2.04,-8.56,0.00,0,55.415800 12.873600,8,2026-05-29 09:36:21,0,0,-1021,0,-430,2,65,36,322,0,0,-1,-1,-1,-1,-1,-1,0,-1,-1,-1,0,36,8,-1024,0,36,0,0,0,0,0,0,0,297,0,0,0,0,0,0,0,0,0,0,0,0,0,0,0,0,0,0,0,0,0,0,0,0,0,0,0,0,0,0,0,0,0,0,0,0,0,0,0,0,0,0,0,0,0,0,0,0,0,0,0,
2026-05-29,09:36:21.490,8.20,100,100,0,-0.150,5.98,25,0.992,86,0,-0.013,100,100,-2.04,-8.56,0.00,0,55.415800 12.873600,8,2026-05-29 09:36:21,0,0,-1021,0,-430,0,65,37,322,0,0,-1,-1,-1,-1,-1,-1,0,-1,-1,-1,0,36,8,-1024,0,36,0,0,0,0,0,0,0,297,0,0,0,0,0,0,0,0,0,0,0,0,0,0,0,0,0,0,0,0,0,0,0,0,0,0,0,0,0,0,0,0,0,0,0,0,0,0,0,0,0,0,0,0,0,0,0,0,0,0,0,
2026-05-29,09:36:21.610,8.20,100,100,0,-0.150,5.98,25,0.992,86,0,-0.013,100,100,-2.04,-8.56,0.00,0,55.415800 12.873600,8,2026-05-29 09:36:21,0,0,-1021,0,-430,0,64,37,322,0,0,-1,-1,-1,-1,-1,-1,0,-1,-1,-1,0,36,8,-1024,0,36,0,0,0,0,0,0,0,297,0,0,0,0,0,0,0,0,0,0,0,0,0,0,0,0,0,0,0,0,0,0,0,0,0,0,0,0,0,0,0,0,0,0,0,0,0,0,0,0,0,0,0,0,0,0,0,0,0,0,0,
2026-05-29,09:36:21.720,8.20,100,100,0,-0.151,5.99,25,0.988,86,0,-0.013,100,100,-2.05,-8.56,0.00,0,55.415800 12.873600,8,2026-05-29 09:36:21,0,0,-1021,0,-430,0,64,36,322,0,0,-1,-1,-1,-1,-1,-1,0,-1,-1,-1,0,36,8,-1024,0,36,0,0,0,0,0,0,0,297,0,0,0,0,0,0,0,0,0,0,0,0,0,0,0,0,0,0,0,0,0,0,0,0,0,0,0,0,0,0,0,0,0,0,0,0,0,0,0,0,0,0,0,0,0,0,0,0,0,0,0,
2026-05-29,09:36:21.830,8.20,100,100,0,-0.149,5.99,25,0.989,86,0,-0.012,100,100,-2.05,-8.56,0.00,0,55.415800 12.873600,8,2026-05-29 09:36:21,0,0,-1021,0,-430,3,64,36,322,0,0,-1,-1,-1,-1,-1,-1,0,-1,-1,-1,0,36,8,-1024,0,36,0,0,0,0,0,0,0,297,0,0,0,0,0,0,0,0,0,0,0,0,0,0,0,0,0,0,0,0,0,0,0,0,0,0,0,0,0,0,0,0,0,0,0,0,0,0,0,0,0,0,0,0,0,0,0,0,0,0,0,
2026-05-29,09:36:21.950,8.20,100,100,0,-0.150,5.97,25,0.989,86,0,-0.012,100,100,-2.05,-8.56,0.00,0,55.415800 12.873600,8,2026-05-29 09:36:21,0,0,-1021,0,-430,1,64,36,322,0,0,-1,-1,-1,-1,-1,-1,0,-1,-1,-1,0,36,8,-1024,0,36,0,0,0,0,0,0,0,297,0,0,0,0,0,0,0,0,0,0,0,0,0,0,0,0,0,0,0,0,0,0,0,0,0,0,0,0,0,0,0,0,0,0,0,0,0,0,0,0,0,0,0,0,0,0,0,0,0,0,0,
2026-05-29,09:36:22.070,8.20,100,100,0,-0.150,5.96,25,0.997,86,0,-0.012,100,100,-2.05,-8.56,0.00,0,55.415800 12.873600,8,2026-05-29 09:36:22,0,0,-1021,0,-430,0,64,36,322,0,0,-1,-1,-1,-1,-1,-1,0,-1,-1,-1,0,36,8,-1024,0,36,0,0,0,0,0,0,0,297,0,0,0,0,0,0,0,0,0,0,0,0,0,0,0,0,0,0,0,0,0,0,0,0,0,0,0,0,0,0,0,0,0,0,0,0,0,0,0,0,0,0,0,0,0,0,0,0,0,0,0,
2026-05-29,09:36:22.190,8.21,100,100,0,-0.151,5.94,25,0.993,87,0,-0.014,100,100,-2.07,-8.56,0.00,0,55.415800 12.873600,8,2026-05-29 09:36:22,0,0,-1021,0,-430,0,64,37,322,0,0,-1,-1,-1,-1,-1,-1,0,-1,-1,-1,0,36,8,-1024,0,36,0,0,0,0,0,0,0,297,0,0,0,0,0,0,0,0,0,0,0,0,0,0,0,0,0,0,0,0,0,0,0,0,0,0,0,0,0,0,0,0,0,0,0,0,0,0,0,0,0,0,0,0,0,0,0,0,0,0,0,
2026-05-29,09:36:22.300,8.21,100,100,0,-0.150,5.96,25,0.993,88,0,-0.012,100,100,-2.07,-8.56,0.00,0,55.415800 12.873600,8,2026-05-29 09:36:22,0,0,-1021,0,-429,0,64,37,322,0,0,-1,-1,-1,-1,-1,-1,0,-1,-1,-1,0,36,8,-1024,0,36,0,0,0,0,0,0,0,298,0,0,0,0,0,0,0,0,0,0,0,0,0,0,0,0,0,0,0,0,0,0,0,0,0,0,0,0,0,0,0,0,0,0,0,0,0,0,0,0,0,0,0,0,0,0,0,0,0,0,0,
2026-05-29,09:36:22.420,8.21,100,100,0,-0.150,5.97,25,0.995,88,0,-0.012,100,100,-2.05,-8.56,0.00,0,55.415800 12.873600,8,2026-05-29 09:36:22,0,0,-1022,0,-430,0,65,35,322,0,0,-1,-1,-1,-1,-1,-1,0,-1,-1,-1,0,36,8,-1024,0,36,0,0,0,0,0,0,0,297,0,0,0,0,0,0,0,0,0,0,0,0,0,0,0,0,0,0,0,0,0,0,0,0,0,0,0,0,0,0,0,0,0,0,0,0,0,0,0,0,0,0,0,0,0,0,0,0,0,0,0,
2026-05-29,09:36:22.540,8.21,100,100,0,-0.153,5.96,25,0.997,88,0,-0.011,100,100,-2.06,-8.56,0.00,0,55.415800 12.873600,8,2026-05-29 09:36:22,0,0,-1021,0,-430,0,64,36,322,0,0,-1,-1,-1,-1,-1,-1,0,-1,-1,-1,0,36,8,-1024,0,36,0,0,0,0,0,0,0,297,0,0,0,0,0,0,0,0,0,0,0,0,0,0,0,0,0,0,0,0,0,0,0,0,0,0,0,0,0,0,0,0,0,0,0,0,0,0,0,0,0,0,0,0,0,0,0,0,0,0,0,
2026-05-29,09:36:22.650,8.20,100,100,0,-0.150,5.97,25,0.997,88,0,-0.012,100,100,-2.04,-8.56,0.00,0,55.415800 12.873600,8,2026-05-29 09:36:22,0,0,-1021,0,-430,0,65,36,322,0,0,-1,-1,-1,-1,-1,-1,0,-1,-1,-1,0,36,8,-1024,0,36,0,0,0,0,0,0,0,297,0,0,0,0,0,0,0,0,0,0,0,0,0,0,0,0,0,0,0,0,0,0,0,0,0,0,0,0,0,0,0,0,0,0,0,0,0,0,0,0,0,0,0,0,0,0,0,0,0,0,0,
2026-05-29,09:36:22.760,8.20,100,100,0,-0.150,5.97,25,0.994,87,0,-0.012,100,100,-2.04,-8.56,0.00,0,55.415800 12.873600,8,2026-05-29 09:36:22,0,0,-1021,0,-430,1,64,36,322,0,0,-1,-1,-1,-1,-1,-1,0,-1,-1,-1,0,36,8,-1024,0,36,0,0,0,0,0,0,0,297,0,0,0,0,0,0,0,0,0,0,0,0,0,0,0,0,0,0,0,0,0,0,0,0,0,0,0,0,0,0,0,0,0,0,0,0,0,0,0,0,0,0,0,0,0,0,0,0,0,0,0,
2026-05-29,09:36:22.880,8.20,100,100,0,-0.150,5.98,25,0.993,87,0,-0.012,100,100,-2.05,-8.56,0.00,0,55.415800 12.873600,8,2026-05-29 09:36:22,0,0,-1021,0,-430,0,64,36,322,0,0,-1,-1,-1,-1,-1,-1,0,-1,-1,-1,0,36,8,-1024,0,36,0,0,0,0,0,0,0,297,0,0,0,0,0,0,0,0,0,0,0,0,0,0,0,0,0,0,0,0,0,0,0,0,0,0,0,0,0,0,0,0,0,0,0,0,0,0,0,0,0,0,0,0,0,0,0,0,0,0,0,
2026-05-29,09:36:22.990,8.21,100,100,0,-0.152,5.99,25,0.997,87,0,-0.014,100,100,-2.04,-8.57,0.00,1,55.415800 12.873600,8,2026-05-29 09:36:22,0,0,-1021,0,-430,2,65,36,322,0,0,-1,-1,-1,-1,-1,-1,0,-1,-1,-1,0,36,8,-1024,0,36,0,0,0,0,0,0,0,297,0,0,0,0,0,0,0,0,0,0,0,0,0,0,0,0,0,0,0,0,0,0,0,0,0,0,0,0,0,0,0,0,0,0,0,0,0,0,0,0,0,0,0,0,0,0,0,0,0,0,0,
2026-05-29,09:36:23.110,8.21,100,100,0,-0.152,5.99,25,0.997,87,0,-0.014,100,100,-2.04,-8.57,0.00,1,55.415800 12.873600,8,2026-05-29 09:36:23,0,0,-1021,0,-430,0,65,35,322,0,0,-1,-1,-1,-1,-1,-1,0,-1,-1,-1,0,36,8,-1024,0,36,0,0,0,0,0,0,0,297,0,0,0,0,0,0,0,0,0,0,0,0,0,0,0,0,0,0,0,0,0,0,0,0,0,0,0,0,0,0,0,0,0,0,0,0,0,0,0,0,0,0,0,0,0,0,0,0,0,0,0,
2026-05-29,09:36:23.230,8.21,100,100,0,-0.150,5.99,25,0.993,86,0,-0.013,100,100,-2.04,-8.56,0.00,1,55.415800 12.873600,8,2026-05-29 09:36:23,0,0,-1021,0,-430,0,65,36,321,0,0,-1,-1,-1,-1,-1,-1,0,-1,-1,-1,0,36,8,-1024,0,36,0,0,0,0,0,0,0,297,0,0,0,0,0,0,0,0,0,0,0,0,0,0,0,0,0,0,0,0,0,0,0,0,0,0,0,0,0,0,0,0,0,0,0,0,0,0,0,0,0,0,0,0,0,0,0,0,0,0,0,
2026-05-29,09:36:23.340,8.20,100,100,0,-0.151,6.00,25,0.992,86,0,-0.014,100,100,-2.04,-8.56,0.00,1,55.415800 12.873600,8,2026-05-29 09:36:23,0,0,-1021,0,-430,0,65,37,322,0,0,-1,-1,-1,-1,-1,-1,0,-1,-1,-1,0,36,8,-1024,0,36,0,0,0,0,0,0,0,297,0,0,0,0,0,0,0,0,0,0,0,0,0,0,0,0,0,0,0,0,0,0,0,0,0,0,0,0,0,0,0,0,0,0,0,0,0,0,0,0,0,0,0,0,0,0,0,0,0,0,0,
2026-05-29,09:36:23.460,8.21,100,100,0,-0.151,6.00,25,0.992,87,0,-0.014,100,100,-2.04,-8.56,0.00,1,55.415800 12.873600,8,2026-05-29 09:36:23,0,0,-1021,0,-429,0,64,36,321,0,0,-1,-1,-1,-1,-1,-1,0,-1,-1,-1,0,36,8,-1024,0,36,0,0,0,0,0,0,0,298,0,0,0,0,0,0,0,0,0,0,0,0,0,0,0,0,0,0,0,0,0,0,0,0,0,0,0,0,0,0,0,0,0,0,0,0,0,0,0,0,0,0,0,0,0,0,0,0,0,0,0,
2026-05-29,09:36:23.580,8.21,100,100,0,-0.152,5.97,25,0.993,87,0,-0.013,100,100,-2.05,-8.56,0.00,1,55.415800 12.873600,8,2026-05-29 09:36:23,0,0,-1021,0,-430,0,64,36,321,0,0,-1,-1,-1,-1,-1,-1,0,-1,-1,-1,0,36,8,-1024,0,36,0,0,0,0,0,0,0,297,0,0,0,0,0,0,0,0,0,0,0,0,0,0,0,0,0,0,0,0,0,0,0,0,0,0,0,0,0,0,0,0,0,0,0,0,0,0,0,0,0,0,0,0,0,0,0,0,0,0,0,
2026-05-29,09:36:23.710,8.20,100,100,0,-0.149,5.96,25,0.997,87,0,-0.015,100,100,-2.05,-8.56,0.00,1,55.415800 12.873600,8,2026-05-29 09:36:23,0,0,-1020,0,-430,0,64,37,322,0,0,-1,-1,-1,-1,-1,-1,0,-1,-1,-1,0,36,8,-1024,0,36,0,0,0,0,0,0,0,297,0,0,0,0,0,0,0,0,0,0,0,0,0,0,0,0,0,0,0,0,0,0,0,0,0,0,0,0,0,0,0,0,0,0,0,0,0,0,0,0,0,0,0,0,0,0,0,0,0,0,0,
2026-05-29,09:36:23.820,8.21,100,100,0,-0.152,5.97,25,0.997,87,0,-0.014,100,100,-2.05,-8.56,0.00,1,55.415800 12.873600,8,2026-05-29 09:36:23,0,0,-1021,0,-430,0,64,37,322,0,0,-1,-1,-1,-1,-1,-1,0,-1,-1,-1,0,36,8,-1024,0,36,0,0,0,0,0,0,0,297,0,0,0,0,0,0,0,0,0,0,0,0,0,0,0,0,0,0,0,0,0,0,0,0,0,0,0,0,0,0,0,0,0,0,0,0,0,0,0,0,0,0,0,0,0,0,0,0,0,0,0,
2026-05-29,09:36:23.940,8.21,100,100,0,-0.152,5.98,25,0.995,87,0,-0.014,100,100,-2.02,-8.56,0.00,1,55.415800 12.873600,8,2026-05-29 09:36:23,0,0,-1021,0,-430,0,64,36,322,0,0,-1,-1,-1,-1,-1,-1,0,-1,-1,-1,0,36,8,-1024,0,36,0,0,0,0,0,0,0,297,0,0,0,0,0,0,0,0,0,0,0,0,0,0,0,0,0,0,0,0,0,0,0,0,0,0,0,0,0,0,0,0,0,0,0,0,0,0,0,0,0,0,0,0,0,0,0,0,0,0,0,
2026-05-29,09:36:24.060,8.21,100,100,0,-0.149,5.98,25,0.993,87,0,-0.013,100,100,-2.03,-8.56,0.00,0,55.415800 12.873600,8,2026-05-29 09:36:24,0,0,-1021,0,-430,0,64,35,322,0,0,-1,-1,-1,-1,-1,-1,0,-1,-1,-1,0,36,8,-1024,0,36,0,0,0,0,0,0,0,297,0,0,0,0,0,0,0,0,0,0,0,0,0,0,0,0,0,0,0,0,0,0,0,0,0,0,0,0,0,0,0,0,0,0,0,0,0,0,0,0,0,0,0,0,0,0,0,0,0,0,0,
2026-05-29,09:36:24.170,8.21,100,100,0,-0.148,5.99,25,0.994,88,0,-0.015,100,100,-2.03,-8.56,0.00,0,55.415800 12.873600,8,2026-05-29 09:36:24,0,0,-1021,0,-430,1,64,36,322,0,0,-1,-1,-1,-1,-1,-1,0,-1,-1,-1,0,36,8,-1024,0,36,0,0,0,0,0,0,0,297,0,0,0,0,0,0,0,0,0,0,0,0,0,0,0,0,0,0,0,0,0,0,0,0,0,0,0,0,0,0,0,0,0,0,0,0,0,0,0,0,0,0,0,0,0,0,0,0,0,0,0,
2026-05-29,09:36:24.290,8.21,100,100,0,-0.148,5.99,25,0.994,88,0,-0.015,100,100,-2.05,-8.56,0.00,0,55.415800 12.873600,8,2026-05-29 09:36:24,0,0,-1021,0,-430,1,65,37,322,0,0,-1,-1,-1,-1,-1,-1,0,-1,-1,-1,0,36,8,-1024,0,36,0,0,0,0,0,0,0,297,0,0,0,0,0,0,0,0,0,0,0,0,0,0,0,0,0,0,0,0,0,0,0,0,0,0,0,0,0,0,0,0,0,0,0,0,0,0,0,0,0,0,0,0,0,0,0,0,0,0,0,
2026-05-29,09:36:24.410,8.20,100,100,0,-0.148,5.99,25,0.987,88,0,-0.011,100,100,-2.04,-8.56,0.00,0,55.415800 12.873600,8,2026-05-29 09:36:24,0,0,-1021,0,-430,1,65,36,322,0,0,-1,-1,-1,-1,-1,-1,0,-1,-1,-1,0,36,8,-1024,0,36,0,0,0,0,0,0,0,297,0,0,0,0,0,0,0,0,0,0,0,0,0,0,0,0,0,0,0,0,0,0,0,0,0,0,0,0,0,0,0,0,0,0,0,0,0,0,0,0,0,0,0,0,0,0,0,0,0,0,0,
2026-05-29,09:36:24.550,8.21,100,100,0,-0.150,6.00,25,0.986,89,0,-0.012,100,100,-2.04,-8.56,0.00,0,55.415800 12.873600,8,2026-05-29 09:36:24,0,0,-1021,0,-430,0,64,37,322,0,0,-1,-1,-1,-1,-1,-1,0,-1,-1,-1,0,36,8,-1024,0,36,0,0,0,0,0,0,0,297,0,0,0,0,0,0,0,0,0,0,0,0,0,0,0,0,0,0,0,0,0,0,0,0,0,0,0,0,0,0,0,0,0,0,0,0,0,0,0,0,0,0,0,0,0,0,0,0,0,0,0,
2026-05-29,09:36:24.660,8.21,100,100,0,-0.150,6.00,25,0.986,88,0,-0.012,100,100,-2.04,-8.56,0.00,0,55.415800 12.873600,8,2026-05-29 09:36:24,0,0,-1021,0,-430,0,64,35,322,0,0,-1,-1,-1,-1,-1,-1,0,-1,-1,-1,0,36,8,-1024,0,36,0,0,0,0,0,0,0,297,0,0,0,0,0,0,0,0,0,0,0,0,0,0,0,0,0,0,0,0,0,0,0,0,0,0,0,0,0,0,0,0,0,0,0,0,0,0,0,0,0,0,0,0,0,0,0,0,0,0,0,
2026-05-29,09:36:24.770,8.21,100,100,0,-0.150,6.00,25,0.990,88,0,-0.013,100,100,-2.04,-8.56,0.00,0,55.415800 12.873600,8,2026-05-29 09:36:24,0,0,-1021,0,-429,0,64,35,322,0,0,-1,-1,-1,-1,-1,-1,0,-1,-1,-1,0,36,8,-1024,0,36,0,0,0,0,0,0,0,298,0,0,0,0,0,0,0,0,0,0,0,0,0,0,0,0,0,0,0,0,0,0,0,0,0,0,0,0,0,0,0,0,0,0,0,0,0,0,0,0,0,0,0,0,0,0,0,0,0,0,0,
2026-05-29,09:36:24.890,8.21,100,100,0,-0.150,6.00,25,0.994,88,0,-0.012,100,100,-2.04,-8.56,0.00,0,55.415800 12.873600,8,2026-05-29 09:36:24,0,0,-1021,0,-429,0,64,36,322,0,0,-1,-1,-1,-1,-1,-1,0,-1,-1,-1,0,36,8,-1024,0,36,0,0,0,0,0,0,0,298,0,0,0,0,0,0,0,0,0,0,0,0,0,0,0,0,0,0,0,0,0,0,0,0,0,0,0,0,0,0,0,0,0,0,0,0,0,0,0,0,0,0,0,0,0,0,0,0,0,0,0,
2026-05-29,09:36:25.000,8.21,100,100,0,-0.151,5.97,25,0.994,88,0,-0.011,100,100,-2.04,-8.56,0.00,0,55.415800 12.873600,7,2026-05-29 09:36:24,0,0,-1021,0,-430,1,65,36,322,0,0,-1,-1,-1,-1,-1,-1,0,-1,-1,-1,0,36,8,-1024,0,36,0,0,0,0,0,0,0,297,0,0,0,0,0,0,0,0,0,0,0,0,0,0,0,0,0,0,0,0,0,0,0,0,0,0,0,0,0,0,0,0,0,0,0,0,0,0,0,0,0,0,0,0,0,0,0,0,0,0,0,
2026-05-29,09:36:25.120,8.21,100,100,0,-0.151,5.95,25,0.993,89,0,-0.011,100,100,-2.04,-8.56,0.00,0,55.415800 12.873600,7,2026-05-29 09:36:25,0,0,-1021,0,-430,0,65,35,322,0,0,-1,-1,-1,-1,-1,-1,0,-1,-1,-1,0,36,8,-1024,0,36,0,0,0,0,0,0,0,297,0,0,0,0,0,0,0,0,0,0,0,0,0,0,0,0,0,0,0,0,0,0,0,0,0,0,0,0,0,0,0,0,0,0,0,0,0,0,0,0,0,0,0,0,0,0,0,0,0,0,0,
2026-05-29,09:36:25.240,8.21,100,100,0,-0.149,5.97,25,0.990,90,0,-0.011,100,100,-2.03,-8.56,0.00,0,55.415800 12.873600,7,2026-05-29 09:36:25,0,0,-1021,0,-430,0,65,35,322,0,0,-1,-1,-1,-1,-1,-1,0,-1,-1,-1,0,36,8,-1024,0,36,0,0,0,0,0,0,0,297,0,0,0,0,0,0,0,0,0,0,0,0,0,0,0,0,0,0,0,0,0,0,0,0,0,0,0,0,0,0,0,0,0,0,0,0,0,0,0,0,0,0,0,0,0,0,0,0,0,0,0,
2026-05-29,09:36:25.350,8.20,100,100,0,-0.152,5.97,25,1.000,90,0,-0.013,100,100,-2.04,-8.56,0.00,0,55.415800 12.873600,7,2026-05-29 09:36:25,0,0,-1021,0,-430,0,64,35,322,0,0,-1,-1,-1,-1,-1,-1,0,-1,-1,-1,0,36,8,-1024,0,36,0,0,0,0,0,0,0,297,0,0,0,0,0,0,0,0,0,0,0,0,0,0,0,0,0,0,0,0,0,0,0,0,0,0,0,0,0,0,0,0,0,0,0,0,0,0,0,0,0,0,0,0,0,0,0,0,0,0,0,
2026-05-29,09:36:25.470,8.20,100,100,0,-0.152,5.98,25,1.000,90,0,-0.013,100,100,-2.04,-8.56,0.00,0,55.415800 12.873600,7,2026-05-29 09:36:25,0,0,-1022,0,-430,1,65,36,322,0,0,-1,-1,-1,-1,-1,-1,0,-1,-1,-1,0,36,8,-1024,0,36,0,0,0,0,0,0,0,297,0,0,0,0,0,0,0,0,0,0,0,0,0,0,0,0,0,0,0,0,0,0,0,0,0,0,0,0,0,0,0,0,0,0,0,0,0,0,0,0,0,0,0,0,0,0,0,0,0,0,0,
2026-05-29,09:36:25.590,8.20,100,100,0,-0.153,5.97,25,0.991,91,0,-0.013,100,100,-2.04,-8.56,0.00,0,55.415800 12.873600,7,2026-05-29 09:36:25,0,0,-1021,0,-430,4,64,37,322,0,0,-1,-1,-1,-1,-1,-1,0,-1,-1,-1,0,36,8,-1024,0,36,0,0,0,0,0,0,0,297,0,0,0,0,0,0,0,0,0,0,0,0,0,0,0,0,0,0,0,0,0,0,0,0,0,0,0,0,0,0,0,0,0,0,0,0,0,0,0,0,0,0,0,0,0,0,0,0,0,0,0,
2026-05-29,09:36:25.700,8.20,100,100,0,-0.148,5.98,25,0.993,91,0,-0.013,100,100,-2.04,-8.56,0.00,0,55.415800 12.873600,7,2026-05-29 09:36:25,0,0,-1021,0,-430,1,64,37,322,0,0,-1,-1,-1,-1,-1,-1,0,-1,-1,-1,0,36,8,-1024,0,36,0,0,0,0,0,0,0,297,0,0,0,0,0,0,0,0,0,0,0,0,0,0,0,0,0,0,0,0,0,0,0,0,0,0,0,0,0,0,0,0,0,0,0,0,0,0,0,0,0,0,0,0,0,0,0,0,0,0,0,
2026-05-29,09:36:25.830,8.20,100,100,0,-0.148,5.98,25,0.993,89,0,-0.013,100,100,-2.04,-8.56,0.00,0,55.415800 12.873600,7,2026-05-29 09:36:25,0,0,-1021,0,-430,1,65,36,322,0,0,-1,-1,-1,-1,-1,-1,0,-1,-1,-1,0,36,8,-1024,0,36,0,0,0,0,0,0,0,297,0,0,0,0,0,0,0,0,0,0,0,0,0,0,0,0,0,0,0,0,0,0,0,0,0,0,0,0,0,0,0,0,0,0,0,0,0,0,0,0,0,0,0,0,0,0,0,0,0,0,0,
2026-05-29,09:36:25.950,8.21,100,100,0,-0.149,5.99,25,0.995,89,0,-0.013,100,100,-2.03,-8.56,0.00,0,55.415800 12.873600,8,2026-05-29 09:36:25,0,0,-1021,0,-429,1,64,36,321,0,0,-1,-1,-1,-1,-1,-1,0,-1,-1,-1,0,36,8,-1024,0,36,0,0,0,0,0,0,0,298,0,0,0,0,0,0,0,0,0,0,0,0,0,0,0,0,0,0,0,0,0,0,0,0,0,0,0,0,0,0,0,0,0,0,0,0,0,0,0,0,0,0,0,0,0,0,0,0,0,0,0,
2026-05-29,09:36:26.060,8.20,100,100,0,-0.150,5.99,25,1.000,90,0,-0.014,100,100,-2.04,-8.56,0.00,0,55.415800 12.873600,8,2026-05-29 09:36:26,0,0,-1021,0,-429,1,64,36,322,0,0,-1,-1,-1,-1,-1,-1,0,-1,-1,-1,0,36,8,-1024,0,36,0,0,0,0,0,0,0,298,0,0,0,0,0,0,0,0,0,0,0,0,0,0,0,0,0,0,0,0,0,0,0,0,0,0,0,0,0,0,0,0,0,0,0,0,0,0,0,0,0,0,0,0,0,0,0,0,0,0,0,
2026-05-29,09:36:26.180,8.21,100,100,0,-0.150,5.98,25,1.000,90,0,-0.014,100,100,-2.04,-8.56,0.00,0,55.415800 12.873600,8,2026-05-29 09:36:26,0,0,-1021,0,-429,0,65,37,322,0,0,-1,-1,-1,-1,-1,-1,0,-1,-1,-1,0,36,8,-1024,0,36,0,0,0,0,0,0,0,298,0,0,0,0,0,0,0,0,0,0,0,0,0,0,0,0,0,0,0,0,0,0,0,0,0,0,0,0,0,0,0,0,0,0,0,0,0,0,0,0,0,0,0,0,0,0,0,0,0,0,0,
2026-05-29,09:36:26.300,8.20,100,100,0,-0.150,5.96,25,0.997,88,0,-0.013,100,100,-2.04,-8.56,0.00,0,55.415800 12.873600,8,2026-05-29 09:36:26,0,0,-1022,0,-430,0,64,37,322,0,0,-1,-1,-1,-1,-1,-1,0,-1,-1,-1,0,36,8,-1024,0,36,0,0,0,0,0,0,0,297,0,0,0,0,0,0,0,0,0,0,0,0,0,0,0,0,0,0,0,0,0,0,0,0,0,0,0,0,0,0,0,0,0,0,0,0,0,0,0,0,0,0,0,0,0,0,0,0,0,0,0,
2026-05-29,09:36:26.420,8.21,100,100,0,-0.151,5.97,25,0.995,89,0,-0.013,100,100,-2.03,-8.56,0.00,0,55.415800 12.873600,8,2026-05-29 09:36:26,0,0,-1021,0,-430,1,64,37,322,0,0,-1,-1,-1,-1,-1,-1,0,-1,-1,-1,0,36,8,-1024,0,36,0,0,0,0,0,0,0,297,0,0,0,0,0,0,0,0,0,0,0,0,0,0,0,0,0,0,0,0,0,0,0,0,0,0,0,0,0,0,0,0,0,0,0,0,0,0,0,0,0,0,0,0,0,0,0,0,0,0,0,
2026-05-29,09:36:26.530,8.21,100,100,0,-0.148,5.95,25,0.995,89,0,-0.013,100,100,-2.03,-8.56,0.00,0,55.415800 12.873600,8,2026-05-29 09:36:26,0,0,-1021,0,-430,0,65,35,322,0,0,-1,-1,-1,-1,-1,-1,0,-1,-1,-1,0,36,8,-1024,0,36,0,0,0,0,0,0,0,297,0,0,0,0,0,0,0,0,0,0,0,0,0,0,0,0,0,0,0,0,0,0,0,0,0,0,0,0,0,0,0,0,0,0,0,0,0,0,0,0,0,0,0,0,0,0,0,0,0,0,0,
2026-05-29,09:36:26.650,8.21,100,100,0,-0.148,5.94,25,1.000,89,0,-0.013,100,100,-2.03,-8.56,0.00,0,55.415800 12.873600,8,2026-05-29 09:36:26,0,0,-1021,0,-430,0,65,35,322,0,0,-1,-1,-1,-1,-1,-1,0,-1,-1,-1,0,36,8,-1024,0,36,0,0,0,0,0,0,0,297,0,0,0,0,0,0,0,0,0,0,0,0,0,0,0,0,0,0,0,0,0,0,0,0,0,0,0,0,0,0,0,0,0,0,0,0,0,0,0,0,0,0,0,0,0,0,0,0,0,0,0,
2026-05-29,09:36:26.760,8.21,100,100,0,-0.152,5.94,25,0.999,88,0,-0.012,100,100,-2.02,-8.56,0.00,0,55.415800 12.873600,8,2026-05-29 09:36:26,0,0,-1021,0,-430,0,65,36,322,0,0,-1,-1,-1,-1,-1,-1,0,-1,-1,-1,0,36,8,-1024,0,36,0,0,0,0,0,0,0,297,0,0,0,0,0,0,0,0,0,0,0,0,0,0,0,0,0,0,0,0,0,0,0,0,0,0,0,0,0,0,0,0,0,0,0,0,0,0,0,0,0,0,0,0,0,0,0,0,0,0,0,
2026-05-29,09:36:26.870,8.20,100,100,0,-0.148,5.96,25,0.988,88,0,-0.013,100,100,-2.02,-8.56,0.00,0,55.415800 12.873600,8,2026-05-29 09:36:26,0,0,-1021,0,-429,0,64,36,322,0,0,-1,-1,-1,-1,-1,-1,0,-1,-1,-1,0,36,8,-1024,0,36,0,0,0,0,0,0,0,298,0,0,0,0,0,0,0,0,0,0,0,0,0,0,0,0,0,0,0,0,0,0,0,0,0,0,0,0,0,0,0,0,0,0,0,0,0,0,0,0,0,0,0,0,0,0,0,0,0,0,0,
2026-05-29,09:36:26.990,8.20,100,100,0,-0.148,5.97,25,0.988,88,0,-0.013,100,100,-2.02,-8.56,0.00,0,55.415800 12.873600,8,2026-05-29 09:36:26,0,0,-1021,0,-430,1,64,36,321,0,0,-1,-1,-1,-1,-1,-1,0,-1,-1,-1,0,36,8,-1024,0,36,0,0,0,0,0,0,0,297,0,0,0,0,0,0,0,0,0,0,0,0,0,0,0,0,0,0,0,0,0,0,0,0,0,0,0,0,0,0,0,0,0,0,0,0,0,0,0,0,0,0,0,0,0,0,0,0,0,0,0,
2026-05-29,09:36:27.110,8.21,100,100,0,-0.147,5.98,25,0.984,88,0,-0.012,100,100,-2.03,-8.55,0.00,0,55.415800 12.873600,8,2026-05-29 09:36:27,0,0,-1021,0,-430,1,64,36,322,0,0,-1,-1,-1,-1,-1,-1,0,-1,-1,-1,0,36,8,-1024,0,36,0,0,0,0,0,0,0,298,0,0,0,0,0,0,0,0,0,0,0,0,0,0,0,0,0,0,0,0,0,0,0,0,0,0,0,0,0,0,0,0,0,0,0,0,0,0,0,0,0,0,0,0,0,0,0,0,0,0,0,
2026-05-29,09:36:27.220,8.21,100,100,0,-0.151,5.98,25,0.991,88,0,-0.013,100,100,-2.04,-8.55,0.00,0,55.415800 12.873600,8,2026-05-29 09:36:27,0,0,-1021,0,-430,0,64,36,322,0,0,-1,-1,-1,-1,-1,-1,0,-1,-1,-1,0,36,8,-1024,0,36,0,0,0,0,0,0,0,297,0,0,0,0,0,0,0,0,0,0,0,0,0,0,0,0,0,0,0,0,0,0,0,0,0,0,0,0,0,0,0,0,0,0,0,0,0,0,0,0,0,0,0,0,0,0,0,0,0,0,0,
2026-05-29,09:36:27.340,8.21,100,100,0,-0.151,5.99,25,0.991,89,0,-0.013,100,100,-2.04,-8.55,0.00,0,55.415800 12.873600,8,2026-05-29 09:36:27,0,0,-1021,0,-430,0,64,37,322,0,0,-1,-1,-1,-1,-1,-1,0,-1,-1,-1,0,36,8,-1024,0,36,0,0,0,0,0,0,0,298,0,0,0,0,0,0,0,0,0,0,0,0,0,0,0,0,0,0,0,0,0,0,0,0,0,0,0,0,0,0,0,0,0,0,0,0,0,0,0,0,0,0,0,0,0,0,0,0,0,0,0,
2026-05-29,09:36:27.460,8.21,100,100,0,-0.150,5.99,25,0.993,89,0,-0.014,100,100,-2.03,-8.55,0.00,0,55.415800 12.873600,8,2026-05-29 09:36:27,0,0,-1021,0,-430,1,64,37,322,0,0,-1,-1,-1,-1,-1,-1,0,-1,-1,-1,0,36,8,-1024,0,36,0,0,0,0,0,0,0,297,0,0,0,0,0,0,0,0,0,0,0,0,0,0,0,0,0,0,0,0,0,0,0,0,0,0,0,0,0,0,0,0,0,0,0,0,0,0,0,0,0,0,0,0,0,0,0,0,0,0,0,
2026-05-29,09:36:27.580,8.21,100,100,0,-0.149,5.99,25,0.999,89,0,-0.015,100,100,-2.02,-8.55,0.00,0,55.415800 12.873600,8,2026-05-29 09:36:27,0,0,-1022,0,-430,2,64,36,322,0,0,-1,-1,-1,-1,-1,-1,0,-1,-1,-1,0,36,8,-1024,0,36,0,0,0,0,0,0,0,298,0,0,0,0,0,0,0,0,0,0,0,0,0,0,0,0,0,0,0,0,0,0,0,0,0,0,0,0,0,0,0,0,0,0,0,0,0,0,0,0,0,0,0,0,0,0,0,0,0,0,0,
2026-05-29,09:36:27.690,8.21,100,100,0,-0.149,6.00,25,0.999,89,0,-0.015,100,100,-2.02,-8.55,0.00,0,55.415800 12.873600,8,2026-05-29 09:36:27,0,0,-1021,0,-430,0,64,36,322,0,0,-1,-1,-1,-1,-1,-1,0,-1,-1,-1,0,36,8,-1024,0,36,0,0,0,0,0,0,0,297,0,0,0,0,0,0,0,0,0,0,0,0,0,0,0,0,0,0,0,0,0,0,0,0,0,0,0,0,0,0,0,0,0,0,0,0,0,0,0,0,0,0,0,0,0,0,0,0,0,0,0,
2026-05-29,09:36:27.800,8.21,100,100,0,-0.151,6.00,25,0.996,89,0,-0.015,100,100,-2.03,-8.56,0.00,0,55.415800 12.873600,8,2026-05-29 09:36:27,0,0,-1021,0,-430,0,64,36,322,0,0,-1,-1,-1,-1,-1,-1,0,-1,-1,-1,0,36,8,-1024,0,36,0,0,0,0,0,0,0,297,0,0,0,0,0,0,0,0,0,0,0,0,0,0,0,0,0,0,0,0,0,0,0,0,0,0,0,0,0,0,0,0,0,0,0,0,0,0,0,0,0,0,0,0,0,0,0,0,0,0,0,
2026-05-29,09:36:27.910,8.21,100,100,0,-0.152,6.00,25,0.997,89,0,-0.011,100,100,-2.01,-8.56,0.00,0,55.415800 12.873600,8,2026-05-29 09:36:27,0,0,-1021,0,-430,2,64,36,322,0,0,-1,-1,-1,-1,-1,-1,0,-1,-1,-1,0,36,8,-1024,0,36,0,0,0,0,0,0,0,297,0,0,0,0,0,0,0,0,0,0,0,0,0,0,0,0,0,0,0,0,0,0,0,0,0,0,0,0,0,0,0,0,0,0,0,0,0,0,0,0,0,0,0,0,0,0,0,0,0,0,0,
2026-05-29,09:36:28.030,8.20,100,100,0,-0.149,5.97,25,0.997,89,0,-0.011,100,100,-2.01,-8.56,0.00,0,55.415800 12.873600,8,2026-05-29 09:36:28,0,0,-1021,0,-430,1,64,36,322,0,0,-1,-1,-1,-1,-1,-1,0,-1,-1,-1,0,36,8,-1024,0,36,0,0,0,0,0,0,0,297,0,0,0,0,0,0,0,0,0,0,0,0,0,0,0,0,0,0,0,0,0,0,0,0,0,0,0,0,0,0,0,0,0,0,0,0,0,0,0,0,0,0,0,0,0,0,0,0,0,0,0,
2026-05-29,09:36:28.150,8.21,100,100,0,-0.149,5.98,25,0.989,90,0,-0.013,100,100,-2.03,-8.56,0.00,0,55.415800 12.873600,8,2026-05-29 09:36:28,0,0,-1021,0,-430,1,65,35,322,0,0,-1,-1,-1,-1,-1,-1,0,-1,-1,-1,0,36,8,-1024,0,36,0,0,0,0,0,0,0,297,0,0,0,0,0,0,0,0,0,0,0,0,0,0,0,0,0,0,0,0,0,0,0,0,0,0,0,0,0,0,0,0,0,0,0,0,0,0,0,0,0,0,0,0,0,0,0,0,0,0,0,
2026-05-29,09:36:28.260,8.21,100,100,0,-0.150,5.99,25,0.988,90,0,-0.013,100,100,-2.03,-8.56,0.00,0,55.415800 12.873600,8,2026-05-29 09:36:28,0,0,-1021,0,-430,0,64,36,322,0,0,-1,-1,-1,-1,-1,-1,0,-1,-1,-1,0,36,8,-1024,0,36,0,0,0,0,0,0,0,297,0,0,0,0,0,0,0,0,0,0,0,0,0,0,0,0,0,0,0,0,0,0,0,0,0,0,0,0,0,0,0,0,0,0,0,0,0,0,0,0,0,0,0,0,0,0,0,0,0,0,0,
2026-05-29,09:36:28.380,8.20,100,100,0,-0.150,5.97,25,0.988,91,0,-0.013,100,100,-2.03,-8.56,0.00,0,55.415800 12.873600,8,2026-05-29 09:36:28,0,0,-1021,0,-429,0,64,36,322,0,0,-1,-1,-1,-1,-1,-1,0,-1,-1,-1,0,36,8,-1024,0,36,0,0,0,0,0,0,0,298,0,0,0,0,0,0,0,0,0,0,0,0,0,0,0,0,0,0,0,0,0,0,0,0,0,0,0,0,0,0,0,0,0,0,0,0,0,0,0,0,0,0,0,0,0,0,0,0,0,0,0,
2026-05-29,09:36:28.500,8.21,100,100,0,-0.150,5.97,25,0.995,90,0,-0.013,100,100,-2.03,-8.56,0.00,0,55.415800 12.873600,8,2026-05-29 09:36:28,0,0,-1021,0,-429,0,64,36,322,0,0,-1,-1,-1,-1,-1,-1,0,-1,-1,-1,0,36,8,-1024,0,36,0,0,0,0,0,0,0,298,0,0,0,0,0,0,0,0,0,0,0,0,0,0,0,0,0,0,0,0,0,0,0,0,0,0,0,0,0,0,0,0,0,0,0,0,0,0,0,0,0,0,0,0,0,0,0,0,0,0,0,
2026-05-29,09:36:28.610,8.21,100,100,0,-0.152,5.96,25,0.990,88,0,-0.012,100,100,-2.02,-8.56,0.00,0,55.415800 12.873600,8,2026-05-29 09:36:28,0,0,-1021,0,-430,0,64,36,322,0,0,-1,-1,-1,-1,-1,-1,0,-1,-1,-1,0,36,8,-1024,0,36,0,0,0,0,0,0,0,297,0,0,0,0,0,0,0,0,0,0,0,0,0,0,0,0,0,0,0,0,0,0,0,0,0,0,0,0,0,0,0,0,0,0,0,0,0,0,0,0,0,0,0,0,0,0,0,0,0,0,0,
2026-05-29,09:36:28.730,8.21,100,100,0,-0.150,5.97,25,0.997,88,0,-0.011,100,100,-2.02,-8.56,0.00,0,55.415800 12.873600,8,2026-05-29 09:36:28,0,0,-1021,0,-430,0,64,36,322,0,0,-1,-1,-1,-1,-1,-1,0,-1,-1,-1,0,36,8,-1024,0,36,0,0,0,0,0,0,0,297,0,0,0,0,0,0,0,0,0,0,0,0,0,0,0,0,0,0,0,0,0,0,0,0,0,0,0,0,0,0,0,0,0,0,0,0,0,0,0,0,0,0,0,0,0,0,0,0,0,0,0,
2026-05-29,09:36:28.840,8.21,100,100,0,-0.150,5.98,25,0.997,88,0,-0.011,100,100,-2.02,-8.56,0.00,0,55.415800 12.873600,8,2026-05-29 09:36:28,0,0,-1021,0,-430,0,65,36,322,0,0,-1,-1,-1,-1,-1,-1,0,-1,-1,-1,0,36,8,-1024,0,36,0,0,0,0,0,0,0,297,0,0,0,0,0,0,0,0,0,0,0,0,0,0,0,0,0,0,0,0,0,0,0,0,0,0,0,0,0,0,0,0,0,0,0,0,0,0,0,0,0,0,0,0,0,0,0,0,0,0,0,
2026-05-29,09:36:28.950,8.21,100,100,0,-0.151,5.99,25,0.996,88,0,-0.014,100,100,-2.02,-8.56,0.00,0,55.415800 12.873600,8,2026-05-29 09:36:28,0,0,-1021,0,-430,0,64,36,322,0,0,-1,-1,-1,-1,-1,-1,0,-1,-1,-1,0,36,8,-1024,0,36,0,0,0,0,0,0,0,297,0,0,0,0,0,0,0,0,0,0,0,0,0,0,0,0,0,0,0,0,0,0,0,0,0,0,0,0,0,0,0,0,0,0,0,0,0,0,0,0,0,0,0,0,0,0,0,0,0,0,0,
2026-05-29,09:36:29.070,8.21,100,100,0,-0.150,5.96,25,0.992,89,0,-0.013,100,100,-2.02,-8.56,0.00,0,55.415800 12.873600,8,2026-05-29 09:36:29,0,0,-1021,0,-430,0,64,35,322,0,0,-1,-1,-1,-1,-1,-1,0,-1,-1,-1,0,36,8,-1024,0,36,0,0,0,0,0,0,0,297,0,0,0,0,0,0,0,0,0,0,0,0,0,0,0,0,0,0,0,0,0,0,0,0,0,0,0,0,0,0,0,0,0,0,0,0,0,0,0,0,0,0,0,0,0,0,0,0,0,0,0,
2026-05-29,09:36:29.190,8.21,100,100,0,-0.150,5.97,25,0.992,89,0,-0.013,100,100,-2.02,-8.56,0.00,0,55.415800 12.873600,8,2026-05-29 09:36:29,0,0,-1020,0,-430,1,64,36,322,0,0,-1,-1,-1,-1,-1,-1,0,-1,-1,-1,0,36,8,-1024,0,36,0,0,0,0,0,0,0,297,0,0,0,0,0,0,0,0,0,0,0,0,0,0,0,0,0,0,0,0,0,0,0,0,0,0,0,0,0,0,0,0,0,0,0,0,0,0,0,0,0,0,0,0,0,0,0,0,0,0,0,
2026-05-29,09:36:29.310,8.21,100,100,0,-0.147,5.98,25,0.988,88,0,-0.013,100,100,-2.03,-8.56,0.00,0,55.415800 12.873600,8,2026-05-29 09:36:29,0,0,-1021,0,-430,1,65,37,322,0,0,-1,-1,-1,-1,-1,-1,0,-1,-1,-1,0,36,8,-1024,0,36,0,0,0,0,0,0,0,297,0,0,0,0,0,0,0,0,0,0,0,0,0,0,0,0,0,0,0,0,0,0,0,0,0,0,0,0,0,0,0,0,0,0,0,0,0,0,0,0,0,0,0,0,0,0,0,0,0,0,0,
2026-05-29,09:36:29.420,8.21,100,100,0,-0.149,5.96,25,0.994,89,0,-0.012,100,100,-2.03,-8.56,0.00,0,55.415800 12.873600,8,2026-05-29 09:36:29,0,0,-1021,0,-429,1,64,36,322,0,0,-1,-1,-1,-1,-1,-1,0,-1,-1,-1,0,36,8,-1024,0,36,0,0,0,0,0,0,0,298,0,0,0,0,0,0,0,0,0,0,0,0,0,0,0,0,0,0,0,0,0,0,0,0,0,0,0,0,0,0,0,0,0,0,0,0,0,0,0,0,0,0,0,0,0,0,0,0,0,0,0,
2026-05-29,09:36:29.540,8.21,100,100,0,-0.149,5.98,25,0.994,89,0,-0.012,100,100,-2.03,-8.56,0.00,0,55.415800 12.873600,8,2026-05-29 09:36:29,0,0,-1021,0,-429,0,65,36,322,0,0,-1,-1,-1,-1,-1,-1,0,-1,-1,-1,0,36,8,-1024,0,36,0,0,0,0,0,0,0,297,0,0,0,0,0,0,0,0,0,0,0,0,0,0,0,0,0,0,0,0,0,0,0,0,0,0,0,0,0,0,0,0,0,0,0,0,0,0,0,0,0,0,0,0,0,0,0,0,0,0,0,
2026-05-29,09:36:29.650,8.21,100,100,0,-0.151,5.98,25,0.995,88,0,-0.012,100,100,-2.02,-8.56,0.00,0,55.415800 12.873600,8,2026-05-29 09:36:29,0,0,-1021,0,-430,0,64,37,322,0,0,-1,-1,-1,-1,-1,-1,0,-1,-1,-1,0,36,8,-1024,0,36,0,0,0,0,0,0,0,297,0,0,0,0,0,0,0,0,0,0,0,0,0,0,0,0,0,0,0,0,0,0,0,0,0,0,0,0,0,0,0,0,0,0,0,0,0,0,0,0,0,0,0,0,0,0,0,0,0,0,0,
2026-05-29,09:36:29.770,8.21,100,100,0,-0.150,5.99,25,1.000,89,0,-0.013,100,100,-2.01,-8.56,0.00,0,55.415800 12.873600,8,2026-05-29 09:36:29,0,0,-1021,0,-430,0,64,36,322,0,0,-1,-1,-1,-1,-1,-1,0,-1,-1,-1,0,36,8,-1024,0,36,0,0,0,0,0,0,0,297,0,0,0,0,0,0,0,0,0,0,0,0,0,0,0,0,0,0,0,0,0,0,0,0,0,0,0,0,0,0,0,0,0,0,0,0,0,0,0,0,0,0,0,0,0,0,0,0,0,0,0,
2026-05-29,09:36:29.880,8.21,100,100,0,-0.150,5.99,25,1.000,89,0,-0.013,100,100,-2.01,-8.56,0.00,0,55.415800 12.873600,8,2026-05-29 09:36:29,0,0,-1021,0,-430,0,64,36,322,0,0,-1,-1,-1,-1,-1,-1,0,-1,-1,-1,0,36,8,-1024,0,36,0,0,0,0,0,0,0,297,0,0,0,0,0,0,0,0,0,0,0,0,0,0,0,0,0,0,0,0,0,0,0,0,0,0,0,0,0,0,0,0,0,0,0,0,0,0,0,0,0,0,0,0,0,0,0,0,0,0,0,
2026-05-29,09:36:30.000,8.21,100,100,0,-0.152,5.99,25,1.002,89,0,-0.012,100,100,-2.02,-8.56,0.00,0,55.415800 12.873600,8,2026-05-29 09:36:30,0,0,-1021,0,-430,0,64,37,322,0,0,-1,-1,-1,-1,-1,-1,0,-1,-1,-1,0,36,8,-1024,0,36,0,0,0,0,0,0,0,297,0,0,0,0,0,0,0,0,0,0,0,0,0,0,0,0,0,0,0,0,0,0,0,0,0,0,0,0,0,0,0,0,0,0,0,0,0,0,0,0,0,0,0,0,0,0,0,0,0,0,0,
2026-05-29,09:36:30.110,8.21,100,100,0,-0.149,6.00,25,0.998,88,0,-0.012,100,100,-2.01,-8.56,0.00,0,55.415800 12.873600,8,2026-05-29 09:36:30,0,0,-1021,0,-430,0,65,37,322,0,0,-1,-1,-1,-1,-1,-1,0,-1,-1,-1,0,36,8,-1024,0,36,0,0,0,0,0,0,0,297,0,0,0,0,0,0,0,0,0,0,0,0,0,0,0,0,0,0,0,0,0,0,0,0,0,0,0,0,0,0,0,0,0,0,0,0,0,0,0,0,0,0,0,0,0,0,0,0,0,0,0,
2026-05-29,09:36:30.230,8.21,100,100,0,-0.149,6.00,25,0.998,88,0,-0.012,100,100,-2.01,-8.56,0.00,0,55.415800 12.873600,8,2026-05-29 09:36:30,0,0,-1021,0,-430,0,64,37,322,0,0,-1,-1,-1,-1,-1,-1,0,-1,-1,-1,0,36,8,-1024,0,36,0,0,0,0,0,0,0,297,0,0,0,0,0,0,0,0,0,0,0,0,0,0,0,0,0,0,0,0,0,0,0,0,0,0,0,0,0,0,0,0,0,0,0,0,0,0,0,0,0,0,0,0,0,0,0,0,0,0,0,
2026-05-29,09:36:30.340,8.21,100,100,0,-0.152,6.00,25,0.999,88,0,-0.013,100,100,-2.00,-8.56,0.00,0,55.415800 12.873600,8,2026-05-29 09:36:30,0,0,-1021,0,-430,0,64,36,322,0,0,-1,-1,-1,-1,-1,-1,0,-1,-1,-1,0,36,8,-1024,0,36,0,0,0,0,0,0,0,297,0,0,0,0,0,0,0,0,0,0,0,0,0,0,0,0,0,0,0,0,0,0,0,0,0,0,0,0,0,0,0,0,0,0,0,0,0,0,0,0,0,0,0,0,0,0,0,0,0,0,0,
2026-05-29,09:36:30.460,8.21,100,100,0,-0.147,6.00,25,0.994,88,0,-0.013,100,100,-2.02,-8.56,0.00,1,55.415800 12.873600,8,2026-05-29 09:36:30,0,0,-1021,0,-429,1,64,36,322,0,0,-1,-1,-1,-1,-1,-1,0,-1,-1,-1,0,36,8,-1024,0,36,0,0,0,0,0,0,0,298,0,0,0,0,0,0,0,0,0,0,0,0,0,0,0,0,0,0,0,0,0,0,0,0,0,0,0,0,0,0,0,0,0,0,0,0,0,0,0,0,0,0,0,0,0,0,0,0,0,0,0,
2026-05-29,09:36:30.580,8.21,100,100,0,-0.151,6.00,25,0.996,89,0,-0.011,100,100,-2.02,-8.56,0.00,1,55.415800 12.873600,8,2026-05-29 09:36:30,0,0,-1021,0,-430,1,65,36,322,0,0,-1,-1,-1,-1,-1,-1,0,-1,-1,-1,0,36,8,-1024,0,36,0,0,0,0,0,0,0,297,0,0,0,0,0,0,0,0,0,0,0,0,0,0,0,0,0,0,0,0,0,0,0,0,0,0,0,0,0,0,0,0,0,0,0,0,0,0,0,0,0,0,0,0,0,0,0,0,0,0,0,
2026-05-29,09:36:30.690,8.21,100,100,0,-0.151,6.00,25,0.996,89,0,-0.011,100,100,-2.02,-8.56,0.00,1,55.415800 12.873600,8,2026-05-29 09:36:30,0,0,-1021,0,-430,0,64,37,322,0,0,-1,-1,-1,-1,-1,-1,0,-1,-1,-1,0,36,8,-1024,0,36,0,0,0,0,0,0,0,297,0,0,0,0,0,0,0,0,0,0,0,0,0,0,0,0,0,0,0,0,0,0,0,0,0,0,0,0,0,0,0,0,0,0,0,0,0,0,0,0,0,0,0,0,0,0,0,0,0,0,0,
2026-05-29,09:36:30.810,8.21,100,100,0,-0.147,5.98,25,0.986,87,0,-0.011,100,100,-2.01,-8.56,0.00,1,55.415800 12.873600,8,2026-05-29 09:36:30,0,0,-1021,0,-430,0,65,37,322,0,0,-1,-1,-1,-1,-1,-1,0,-1,-1,-1,0,36,8,-1024,0,36,0,0,0,0,0,0,0,297,0,0,0,0,0,0,0,0,0,0,0,0,0,0,0,0,0,0,0,0,0,0,0,0,0,0,0,0,0,0,0,0,0,0,0,0,0,0,0,0,0,0,0,0,0,0,0,0,0,0,0,
2026-05-29,09:36:30.920,8.21,100,100,0,-0.149,5.96,25,0.995,87,0,-0.012,100,100,-2.01,-8.56,0.00,1,55.415800 12.873600,8,2026-05-29 09:36:30,0,0,-1021,0,-430,0,65,37,322,0,0,-1,-1,-1,-1,-1,-1,0,-1,-1,-1,0,36,8,-1024,0,36,0,0,0,0,0,0,0,297,0,0,0,0,0,0,0,0,0,0,0,0,0,0,0,0,0,0,0,0,0,0,0,0,0,0,0,0,0,0,0,0,0,0,0,0,0,0,0,0,0,0,0,0,0,0,0,0,0,0,0,
2026-05-29,09:36:31.030,8.21,100,100,0,-0.149,5.97,25,0.995,88,0,-0.012,100,100,-2.02,-8.56,0.00,0,55.415800 12.873600,8,2026-05-29 09:36:31,0,0,-1021,0,-430,0,64,35,321,0,0,-1,-1,-1,-1,-1,-1,0,-1,-1,-1,0,36,8,-1024,0,36,0,0,0,0,0,0,0,297,0,0,0,0,0,0,0,0,0,0,0,0,0,0,0,0,0,0,0,0,0,0,0,0,0,0,0,0,0,0,0,0,0,0,0,0,0,0,0,0,0,0,0,0,0,0,0,0,0,0,0,
2026-05-29,09:36:31.150,8.21,100,100,0,-0.152,5.98,25,1.001,87,0,-0.012,100,100,-2.01,-8.56,0.00,0,55.415800 12.873600,8,2026-05-29 09:36:31,0,0,-1021,0,-430,0,65,37,322,0,0,-1,-1,-1,-1,-1,-1,0,-1,-1,-1,0,36,8,-1024,0,36,0,0,0,0,0,0,0,297,0,0,0,0,0,0,0,0,0,0,0,0,0,0,0,0,0,0,0,0,0,0,0,0,0,0,0,0,0,0,0,0,0,0,0,0,0,0,0,0,0,0,0,0,0,0,0,0,0,0,0,
2026-05-29,09:36:31.270,8.21,100,100,0,-0.152,5.98,25,0.993,87,0,-0.012,100,100,-2.01,-8.56,0.00,0,55.415800 12.873600,8,2026-05-29 09:36:31,0,0,-1021,0,-430,0,64,36,321,0,0,-1,-1,-1,-1,-1,-1,0,-1,-1,-1,0,36,8,-1024,0,36,0,0,0,0,0,0,0,297,0,0,0,0,0,0,0,0,0,0,0,0,0,0,0,0,0,0,0,0,0,0,0,0,0,0,0,0,0,0,0,0,0,0,0,0,0,0,0,0,0,0,0,0,0,0,0,0,0,0,0,
2026-05-29,09:36:31.380,8.21,100,100,0,-0.152,5.99,25,0.993,87,0,-0.012,100,100,-2.01,-8.56,0.00,0,55.415800 12.873600,8,2026-05-29 09:36:31,0,0,-1021,0,-430,0,64,37,322,0,0,-1,-1,-1,-1,-1,-1,0,-1,-1,-1,0,36,8,-1024,0,36,0,0,0,0,0,0,0,297,0,0,0,0,0,0,0,0,0,0,0,0,0,0,0,0,0,0,0,0,0,0,0,0,0,0,0,0,0,0,0,0,0,0,0,0,0,0,0,0,0,0,0,0,0,0,0,0,0,0,0,
2026-05-29,09:36:31.500,8.21,100,100,0,-0.151,5.99,25,0.993,88,0,-0.013,100,100,-2.01,-8.56,0.00,0,55.415800 12.873600,8,2026-05-29 09:36:31,0,0,-1021,0,-430,0,64,36,322,0,0,-1,-1,-1,-1,-1,-1,0,-1,-1,-1,0,36,8,-1024,0,36,0,0,0,0,0,0,0,297,0,0,0,0,0,0,0,0,0,0,0,0,0,0,0,0,0,0,0,0,0,0,0,0,0,0,0,0,0,0,0,0,0,0,0,0,0,0,0,0,0,0,0,0,0,0,0,0,0,0,0,
2026-05-29,09:36:31.620,8.21,100,100,0,-0.151,5.99,25,0.998,88,0,-0.014,100,100,-2.01,-8.56,0.00,0,55.415800 12.873600,8,2026-05-29 09:36:31,0,0,-1021,0,-430,1,65,36,322,0,0,-1,-1,-1,-1,-1,-1,0,-1,-1,-1,0,36,8,-1024,0,36,0,0,0,0,0,0,0,297,0,0,0,0,0,0,0,0,0,0,0,0,0,0,0,0,0,0,0,0,0,0,0,0,0,0,0,0,0,0,0,0,0,0,0,0,0,0,0,0,0,0,0,0,0,0,0,0,0,0,0,
2026-05-29,09:36:31.730,8.21,100,100,0,-0.151,6.00,25,0.998,88,0,-0.014,100,100,-2.01,-8.56,0.00,0,55.415800 12.873600,8,2026-05-29 09:36:31,0,0,-1021,0,-430,0,64,35,322,0,0,-1,-1,-1,-1,-1,-1,0,-1,-1,-1,0,36,8,-1024,0,36,0,0,0,0,0,0,0,297,0,0,0,0,0,0,0,0,0,0,0,0,0,0,0,0,0,0,0,0,0,0,0,0,0,0,0,0,0,0,0,0,0,0,0,0,0,0,0,0,0,0,0,0,0,0,0,0,0,0,0,
2026-05-29,09:36:31.860,8.20,100,100,0,-0.147,6.00,25,0.992,89,0,-0.015,100,100,-2.01,-8.56,0.00,0,55.415800 12.873600,8,2026-05-29 09:36:31,0,0,-1021,0,-430,0,64,37,321,0,0,-1,-1,-1,-1,-1,-1,0,-1,-1,-1,0,36,8,-1024,0,36,0,0,0,0,0,0,0,297,0,0,0,0,0,0,0,0,0,0,0,0,0,0,0,0,0,0,0,0,0,0,0,0,0,0,0,0,0,0,0,0,0,0,0,0,0,0,0,0,0,0,0,0,0,0,0,0,0,0,0,
2026-05-29,09:36:31.980,8.21,100,100,0,-0.151,6.00,25,0.997,89,0,-0.014,100,100,-2.03,-8.56,0.00,0,55.415800 12.873600,8,2026-05-29 09:36:31,0,0,-1021,0,-430,0,64,36,321,0,0,-1,-1,-1,-1,-1,-1,0,-1,-1,-1,0,36,8,-1024,0,36,0,0,0,0,0,0,0,297,0,0,0,0,0,0,0,0,0,0,0,0,0,0,0,0,0,0,0,0,0,0,0,0,0,0,0,0,0,0,0,0,0,0,0,0,0,0,0,0,0,0,0,0,0,0,0,0,0,0,0,
2026-05-29,09:36:32.090,8.21,100,100,0,-0.151,6.00,25,0.997,89,0,-0.014,100,100,-2.03,-8.56,0.00,0,55.415800 12.873600,8,2026-05-29 09:36:32,0,0,-1021,0,-430,0,64,36,322,0,0,-1,-1,-1,-1,-1,-1,0,-1,-1,-1,0,36,8,-1024,0,36,0,0,0,0,0,0,0,297,0,0,0,0,0,0,0,0,0,0,0,0,0,0,0,0,0,0,0,0,0,0,0,0,0,0,0,0,0,0,0,0,0,0,0,0,0,0,0,0,0,0,0,0,0,0,0,0,0,0,0,
2026-05-29,09:36:32.210,8.20,100,100,0,-0.151,6.00,25,0.995,88,0,-0.011,100,100,-2.02,-8.56,0.00,0,55.415800 12.873600,8,2026-05-29 09:36:32,0,0,-1021,0,-429,0,64,37,322,0,0,-1,-1,-1,-1,-1,-1,0,-1,-1,-1,0,36,8,-1024,0,36,0,0,0,0,0,0,0,298,0,0,0,0,0,0,0,0,0,0,0,0,0,0,0,0,0,0,0,0,0,0,0,0,0,0,0,0,0,0,0,0,0,0,0,0,0,0,0,0,0,0,0,0,0,0,0,0,0,0,0,
2026-05-29,09:36:32.330,8.20,100,100,0,-0.149,5.97,25,0.991,87,0,-0.012,100,100,-2.02,-8.56,0.00,0,55.415800 12.873600,8,2026-05-29 09:36:32,0,0,-1021,0,-430,0,64,35,322,0,0,-1,-1,-1,-1,-1,-1,0,-1,-1,-1,0,36,8,-1024,0,36,0,0,0,0,0,0,0,297,0,0,0,0,0,0,0,0,0,0,0,0,0,0,0,0,0,0,0,0,0,0,0,0,0,0,0,0,0,0,0,0,0,0,0,0,0,0,0,0,0,0,0,0,0,0,0,0,0,0,0,
2026-05-29,09:36:32.450,8.20,100,100,0,-0.151,5.98,25,0.994,86,0,-0.011,100,100,-2.02,-8.56,0.00,0,55.415800 12.873600,8,2026-05-29 09:36:32,0,0,-1021,0,-430,1,65,36,322,0,0,-1,-1,-1,-1,-1,-1,0,-1,-1,-1,0,36,8,-1024,0,36,0,0,0,0,0,0,0,297,0,0,0,0,0,0,0,0,0,0,0,0,0,0,0,0,0,0,0,0,0,0,0,0,0,0,0,0,0,0,0,0,0,0,0,0,0,0,0,0,0,0,0,0,0,0,0,0,0,0,0,
2026-05-29,09:36:32.560,8.20,100,100,0,-0.151,5.98,25,0.994,85,0,-0.011,100,100,-2.00,-8.56,0.00,0,55.415800 12.873600,8,2026-05-29 09:36:32,0,0,-1021,0,-430,0,64,38,322,0,0,-1,-1,-1,-1,-1,-1,0,-1,-1,-1,0,36,8,-1024,0,36,0,0,0,0,0,0,0,297,0,0,0,0,0,0,0,0,0,0,0,0,0,0,0,0,0,0,0,0,0,0,0,0,0,0,0,0,0,0,0,0,0,0,0,0,0,0,0,0,0,0,0,0,0,0,0,0,0,0,0,
2026-05-29,09:36:32.680,8.20,100,100,0,-0.148,5.99,25,0.987,85,0,-0.011,100,100,-1.99,-8.56,0.00,0,55.415800 12.873600,8,2026-05-29 09:36:32,0,0,-1021,0,-430,0,64,37,322,0,0,-1,-1,-1,-1,-1,-1,0,-1,-1,-1,0,36,8,-1024,0,36,0,0,0,0,0,0,0,297,0,0,0,0,0,0,0,0,0,0,0,0,0,0,0,0,0,0,0,0,0,0,0,0,0,0,0,0,0,0,0,0,0,0,0,0,0,0,0,0,0,0,0,0,0,0,0,0,0,0,0,
2026-05-29,09:36:32.800,8.20,100,100,0,-0.151,5.99,25,0.991,85,0,-0.011,100,100,-2.01,-8.56,0.00,0,55.415800 12.873600,8,2026-05-29 09:36:32,0,0,-1021,0,-430,0,64,36,322,0,0,-1,-1,-1,-1,-1,-1,0,-1,-1,-1,0,36,8,-1024,0,36,0,0,0,0,0,0,0,297,0,0,0,0,0,0,0,0,0,0,0,0,0,0,0,0,0,0,0,0,0,0,0,0,0,0,0,0,0,0,0,0,0,0,0,0,0,0,0,0,0,0,0,0,0,0,0,0,0,0,0,
2026-05-29,09:36:32.920,8.20,100,100,0,-0.151,6.00,25,0.991,84,0,-0.011,100,100,-2.01,-8.56,0.00,0,55.415800 12.873600,8,2026-05-29 09:36:32,0,0,-1021,0,-430,1,64,36,322,0,0,-1,-1,-1,-1,-1,-1,0,-1,-1,-1,0,36,8,-1024,0,36,0,0,0,0,0,0,0,297,0,0,0,0,0,0,0,0,0,0,0,0,0,0,0,0,0,0,0,0,0,0,0,0,0,0,0,0,0,0,0,0,0,0,0,0,0,0,0,0,0,0,0,0,0,0,0,0,0,0,0,
2026-05-29,09:36:33.040,8.20,100,100,0,-0.152,6.00,25,0.993,84,0,-0.014,100,100,-2.02,-8.56,0.00,0,55.415800 12.873600,8,2026-05-29 09:36:33,0,0,-1021,0,-430,1,64,36,322,0,0,-1,-1,-1,-1,-1,-1,0,-1,-1,-1,0,36,8,-1024,0,36,0,0,0,0,0,0,0,297,0,0,0,0,0,0,0,0,0,0,0,0,0,0,0,0,0,0,0,0,0,0,0,0,0,0,0,0,0,0,0,0,0,0,0,0,0,0,0,0,0,0,0,0,0,0,0,0,0,0,0,
2026-05-29,09:36:33.160,8.20,100,100,0,-0.148,5.98,25,0.991,85,0,-0.012,100,100,-2.01,-8.56,0.00,0,55.415800 12.873600,8,2026-05-29 09:36:33,0,0,-1021,0,-430,1,65,37,322,0,0,-1,-1,-1,-1,-1,-1,0,-1,-1,-1,0,36,8,-1024,0,36,0,0,0,0,0,0,0,297,0,0,0,0,0,0,0,0,0,0,0,0,0,0,0,0,0,0,0,0,0,0,0,0,0,0,0,0,0,0,0,0,0,0,0,0,0,0,0,0,0,0,0,0,0,0,0,0,0,0,0,
2026-05-29,09:36:33.270,8.20,100,100,0,-0.148,5.98,25,0.991,86,0,-0.012,100,100,-2.01,-8.56,0.00,0,55.415800 12.873600,8,2026-05-29 09:36:33,0,0,-1021,0,-430,0,64,35,322,0,0,-1,-1,-1,-1,-1,-1,0,-1,-1,-1,0,36,8,-1024,0,36,0,0,0,0,0,0,0,297,0,0,0,0,0,0,0,0,0,0,0,0,0,0,0,0,0,0,0,0,0,0,0,0,0,0,0,0,0,0,0,0,0,0,0,0,0,0,0,0,0,0,0,0,0,0,0,0,0,0,0,
2026-05-29,09:36:33.390,8.20,100,100,0,-0.152,5.99,25,0.996,87,0,-0.013,100,100,-2.01,-8.55,0.00,0,55.415800 12.873600,8,2026-05-29 09:36:33,0,0,-1021,0,-429,0,64,37,321,0,0,-1,-1,-1,-1,-1,-1,0,-1,-1,-1,0,36,8,-1024,0,36,0,0,0,0,0,0,0,298,0,0,0,0,0,0,0,0,0,0,0,0,0,0,0,0,0,0,0,0,0,0,0,0,0,0,0,0,0,0,0,0,0,0,0,0,0,0,0,0,0,0,0,0,0,0,0,0,0,0,0,
2026-05-29,09:36:33.510,8.21,100,100,0,-0.151,5.99,25,0.995,88,0,-0.012,100,100,-2.00,-8.55,0.00,0,55.415800 12.873600,8,2026-05-29 09:36:33,0,0,-1021,0,-429,0,64,36,321,0,0,-1,-1,-1,-1,-1,-1,0,-1,-1,-1,0,36,8,-1024,0,36,0,0,0,0,0,0,0,298,0,0,0,0,0,0,0,0,0,0,0,0,0,0,0,0,0,0,0,0,0,0,0,0,0,0,0,0,0,0,0,0,0,0,0,0,0,0,0,0,0,0,0,0,0,0,0,0,0,0,0,
2026-05-29,09:36:33.620,8.21,100,100,0,-0.151,5.99,25,0.995,88,0,-0.013,100,100,-2.00,-8.55,0.00,0,55.415800 12.873600,8,2026-05-29 09:36:33,0,0,-1021,0,-430,0,64,37,322,0,0,-1,-1,-1,-1,-1,-1,0,-1,-1,-1,0,36,8,-1024,0,36,0,0,0,0,0,0,0,298,0,0,0,0,0,0,0,0,0,0,0,0,0,0,0,0,0,0,0,0,0,0,0,0,0,0,0,0,0,0,0,0,0,0,0,0,0,0,0,0,0,0,0,0,0,0,0,0,0,0,0,
2026-05-29,09:36:33.740,8.21,100,100,0,-0.147,6.00,25,0.989,89,0,-0.013,100,100,-2.00,-8.56,0.00,0,55.415800 12.873600,8,2026-05-29 09:36:33,0,0,-1020,0,-430,0,65,37,322,0,0,-1,-1,-1,-1,-1,-1,0,-1,-1,-1,0,36,8,-1024,0,36,0,0,0,0,0,0,0,297,0,0,0,0,0,0,0,0,0,0,0,0,0,0,0,0,0,0,0,0,0,0,0,0,0,0,0,0,0,0,0,0,0,0,0,0,0,0,0,0,0,0,0,0,0,0,0,0,0,0,0,
2026-05-29,09:36:33.860,8.21,100,100,0,-0.148,6.00,25,0.989,89,0,-0.013,100,100,-2.00,-8.56,0.00,0,55.415800 12.873600,8,2026-05-29 09:36:33,0,0,-1021,0,-429,0,64,36,322,0,0,-1,-1,-1,-1,-1,-1,0,-1,-1,-1,0,36,8,-1024,0,36,0,0,0,0,0,0,0,297,0,0,0,0,0,0,0,0,0,0,0,0,0,0,0,0,0,0,0,0,0,0,0,0,0,0,0,0,0,0,0,0,0,0,0,0,0,0,0,0,0,0,0,0,0,0,0,0,0,0,0,
2026-05-29,09:36:33.980,8.20,100,100,0,-0.149,6.00,25,1.003,87,0,-0.013,100,100,-2.00,-8.56,0.00,0,55.415800 12.873600,8,2026-05-29 09:36:33,0,0,-1021,0,-430,0,64,36,322,0,0,-1,-1,-1,-1,-1,-1,0,-1,-1,-1,0,36,8,-1024,0,36,0,0,0,0,0,0,0,297,0,0,0,0,0,0,0,0,0,0,0,0,0,0,0,0,0,0,0,0,0,0,0,0,0,0,0,0,0,0,0,0,0,0,0,0,0,0,0,0,0,0,0,0,0,0,0,0,0,0,0,
2026-05-29,09:36:34.100,8.20,100,100,0,-0.149,6.00,25,1.003,87,0,-0.013,100,100,-2.00,-8.56,0.00,0,55.415800 12.873600,8,2026-05-29 09:36:34,0,0,-1021,0,-430,0,64,35,322,0,0,-1,-1,-1,-1,-1,-1,0,-1,-1,-1,0,36,8,-1024,0,36,0,0,0,0,0,0,0,297,0,0,0,0,0,0,0,0,0,0,0,0,0,0,0,0,0,0,0,0,0,0,0,0,0,0,0,0,0,0,0,0,0,0,0,0,0,0,0,0,0,0,0,0,0,0,0,0,0,0,0,
2026-05-29,09:36:34.210,8.20,100,100,0,-0.152,6.00,25,0.989,88,0,-0.012,100,100,-2.00,-8.56,0.00,0,55.415800 12.873600,8,2026-05-29 09:36:34,0,0,-1021,0,-430,0,64,36,322,0,0,-1,-1,-1,-1,-1,-1,0,-1,-1,-1,0,36,8,-1024,0,36,0,0,0,0,0,0,0,297,0,0,0,0,0,0,0,0,0,0,0,0,0,0,0,0,0,0,0,0,0,0,0,0,0,0,0,0,0,0,0,0,0,0,0,0,0,0,0,0,0,0,0,0,0,0,0,0,0,0,0,
2026-05-29,09:36:34.330,8.20,100,100,0,-0.151,6.00,25,0.992,88,0,-0.013,100,100,-2.00,-8.56,0.00,0,55.415800 12.873600,8,2026-05-29 09:36:34,0,0,-1021,0,-430,0,64,36,322,0,0,-1,-1,-1,-1,-1,-1,0,-1,-1,-1,0,36,8,-1024,0,36,0,0,0,0,0,0,0,297,0,0,0,0,0,0,0,0,0,0,0,0,0,0,0,0,0,0,0,0,0,0,0,0,0,0,0,0,0,0,0,0,0,0,0,0,0,0,0,0,0,0,0,0,0,0,0,0,0,0,0,
2026-05-29,09:36:34.450,8.20,100,100,0,-0.151,5.97,25,0.992,87,0,-0.013,100,100,-2.00,-8.56,0.00,1,55.415800 12.873600,8,2026-05-29 09:36:34,0,0,-1021,0,-430,0,65,37,322,0,0,-1,-1,-1,-1,-1,-1,0,-1,-1,-1,0,36,8,-1024,0,36,0,0,0,0,0,0,0,297,0,0,0,0,0,0,0,0,0,0,0,0,0,0,0,0,0,0,0,0,0,0,0,0,0,0,0,0,0,0,0,0,0,0,0,0,0,0,0,0,0,0,0,0,0,0,0,0,0,0,0,
2026-05-29,09:36:34.560,8.20,100,100,0,-0.150,5.98,25,0.994,87,0,-0.014,100,100,-2.01,-8.57,0.00,1,55.415800 12.873600,8,2026-05-29 09:36:34,0,0,-1021,0,-430,2,65,35,321,0,0,-1,-1,-1,-1,-1,-1,0,-1,-1,-1,0,36,8,-1024,0,36,0,0,0,0,0,0,0,297,0,0,0,0,0,0,0,0,0,0,0,0,0,0,0,0,0,0,0,0,0,0,0,0,0,0,0,0,0,0,0,0,0,0,0,0,0,0,0,0,0,0,0,0,0,0,0,0,0,0,0,
2026-05-29,09:36:34.680,8.20,100,100,0,-0.151,5.98,25,0.990,88,0,-0.014,100,100,-2.01,-8.56,0.00,1,55.415800 12.873600,8,2026-05-29 09:36:34,0,0,-1022,0,-430,0,64,35,321,0,0,-1,-1,-1,-1,-1,-1,0,-1,-1,-1,0,36,8,-1024,0,36,0,0,0,0,0,0,0,297,0,0,0,0,0,0,0,0,0,0,0,0,0,0,0,0,0,0,0,0,0,0,0,0,0,0,0,0,0,0,0,0,0,0,0,0,0,0,0,0,0,0,0,0,0,0,0,0,0,0,0,
2026-05-29,09:36:34.800,8.20,100,100,0,-0.151,5.99,25,0.990,87,0,-0.014,100,100,-2.01,-8.56,0.00,1,55.415800 12.873600,8,2026-05-29 09:36:34,0,0,-1021,0,-430,0,65,36,322,0,0,-1,-1,-1,-1,-1,-1,0,-1,-1,-1,0,36,8,-1024,0,36,0,0,0,0,0,0,0,297,0,0,0,0,0,0,0,0,0,0,0,0,0,0,0,0,0,0,0,0,0,0,0,0,0,0,0,0,0,0,0,0,0,0,0,0,0,0,0,0,0,0,0,0,0,0,0,0,0,0,0,
2026-05-29,09:36:34.920,8.20,100,100,0,-0.151,5.99,25,0.985,87,0,-0.012,100,100,-1.99,-8.57,0.00,1,55.415800 12.873600,8,2026-05-29 09:36:34,0,0,-1021,0,-430,0,65,36,321,0,0,-1,-1,-1,-1,-1,-1,0,-1,-1,-1,0,36,8,-1024,0,36,0,0,0,0,0,0,0,297,0,0,0,0,0,0,0,0,0,0,0,0,0,0,0,0,0,0,0,0,0,0,0,0,0,0,0,0,0,0,0,0,0,0,0,0,0,0,0,0,0,0,0,0,0,0,0,0,0,0,0,
2026-05-29,09:36:35.040,8.20,100,100,0,-0.150,6.00,25,0.990,87,0,-0.011,100,100,-1.99,-8.57,0.00,1,55.415800 12.873600,8,2026-05-29 09:36:35,0,0,-1021,0,-430,0,64,36,322,0,0,-1,-1,-1,-1,-1,-1,0,-1,-1,-1,0,36,8,-1024,0,36,0,0,0,0,0,0,0,297,0,0,0,0,0,0,0,0,0,0,0,0,0,0,0,0,0,0,0,0,0,0,0,0,0,0,0,0,0,0,0,0,0,0,0,0,0,0,0,0,0,0,0,0,0,0,0,0,0,0,0,
2026-05-29,09:36:35.160,8.20,100,100,0,-0.150,6.00,25,0.989,88,0,-0.012,100,100,-1.99,-8.57,0.00,1,55.415800 12.873600,8,2026-05-29 09:36:35,0,0,-1021,0,-430,0,64,36,322,0,0,-1,-1,-1,-1,-1,-1,0,-1,-1,-1,0,36,8,-1024,0,36,0,0,0,0,0,0,0,297,0,0,0,0,0,0,0,0,0,0,0,0,0,0,0,0,0,0,0,0,0,0,0,0,0,0,0,0,0,0,0,0,0,0,0,0,0,0,0,0,0,0,0,0,0,0,0,0,0,0,0,
2026-05-29,09:36:35.270,8.20,100,100,0,-0.150,6.00,25,0.989,87,0,-0.012,100,100,-1.99,-8.57,0.00,1,55.415800 12.873600,8,2026-05-29 09:36:35,0,0,-1022,0,-430,0,65,36,321,0,0,-1,-1,-1,-1,-1,-1,0,-1,-1,-1,0,36,8,-1024,0,36,0,0,0,0,0,0,0,297,0,0,0,0,0,0,0,0,0,0,0,0,0,0,0,0,0,0,0,0,0,0,0,0,0,0,0,0,0,0,0,0,0,0,0,0,0,0,0,0,0,0,0,0,0,0,0,0,0,0,0,
2026-05-29,09:36:35.390,8.20,100,100,0,-0.148,6.00,25,0.994,87,0,-0.012,100,100,-1.98,-8.57,0.00,1,55.415800 12.873600,8,2026-05-29 09:36:35,0,0,-1021,0,-430,0,65,36,322,0,0,-1,-1,-1,-1,-1,-1,0,-1,-1,-1,0,36,8,-1024,0,36,0,0,0,0,0,0,0,297,0,0,0,0,0,0,0,0,0,0,0,0,0,0,0,0,0,0,0,0,0,0,0,0,0,0,0,0,0,0,0,0,0,0,0,0,0,0,0,0,0,0,0,0,0,0,0,0,0,0,0,
2026-05-29,09:36:35.510,8.20,100,100,0,-0.152,6.00,25,1.001,87,0,-0.013,100,100,-1.99,-8.57,0.00,0,55.415800 12.873600,8,2026-05-29 09:36:35,0,0,-1021,0,-430,0,64,37,322,0,0,-1,-1,-1,-1,-1,-1,0,-1,-1,-1,0,36,8,-1024,0,36,0,0,0,0,0,0,0,297,0,0,0,0,0,0,0,0,0,0,0,0,0,0,0,0,0,0,0,0,0,0,0,0,0,0,0,0,0,0,0,0,0,0,0,0,0,0,0,0,0,0,0,0,0,0,0,0,0,0,0,
2026-05-29,09:36:35.620,8.20,100,100,0,-0.152,6.00,25,1.001,87,0,-0.013,100,100,-1.99,-8.57,0.00,0,55.415800 12.873600,8,2026-05-29 09:36:35,0,0,-1021,0,-430,0,64,37,322,0,0,-1,-1,-1,-1,-1,-1,0,-1,-1,-1,0,36,8,-1024,0,36,0,0,0,0,0,0,0,297,0,0,0,0,0,0,0,0,0,0,0,0,0,0,0,0,0,0,0,0,0,0,0,0,0,0,0,0,0,0,0,0,0,0,0,0,0,0,0,0,0,0,0,0,0,0,0,0,0,0,0,
2026-05-29,09:36:35.740,8.21,100,100,0,-0.150,6.00,25,1.002,88,0,-0.015,100,100,-2.00,-8.57,0.00,0,55.415800 12.873600,8,2026-05-29 09:36:35,0,0,-1021,0,-430,0,65,36,322,0,0,-1,-1,-1,-1,-1,-1,0,-1,-1,-1,0,36,8,-1024,0,36,0,0,0,0,0,0,0,297,0,0,0,0,0,0,0,0,0,0,0,0,0,0,0,0,0,0,0,0,0,0,0,0,0,0,0,0,0,0,0,0,0,0,0,0,0,0,0,0,0,0,0,0,0,0,0,0,0,0,0,
2026-05-29,09:36:35.860,8.21,100,100,0,-0.152,6.00,25,0.988,89,0,-0.013,100,100,-2.02,-8.57,0.00,0,55.415800 12.873600,8,2026-05-29 09:36:35,0,0,-1021,0,-430,0,64,37,322,0,0,-1,-1,-1,-1,-1,-1,0,-1,-1,-1,0,36,8,-1024,0,36,0,0,0,0,0,0,0,297,0,0,0,0,0,0,0,0,0,0,0,0,0,0,0,0,0,0,0,0,0,0,0,0,0,0,0,0,0,0,0,0,0,0,0,0,0,0,0,0,0,0,0,0,0,0,0,0,0,0,0,
2026-05-29,09:36:35.980,8.21,100,100,0,-0.151,6.00,25,0.988,89,0,-0.013,100,100,-2.02,-8.57,0.00,0,55.415800 12.873600,8,2026-05-29 09:36:35,0,0,-1020,0,-429,0,64,36,322,0,0,-1,-1,-1,-1,-1,-1,0,-1,-1,-1,0,36,8,-1024,0,36,0,0,0,0,0,0,0,297,0,0,0,0,0,0,0,0,0,0,0,0,0,0,0,0,0,0,0,0,0,0,0,0,0,0,0,0,0,0,0,0,0,0,0,0,0,0,0,0,0,0,0,0,0,0,0,0,0,0,0,
2026-05-29,09:36:36.100,8.21,100,100,0,-0.151,6.00,25,0.993,89,0,-0.012,100,100,-2.02,-8.57,0.00,0,55.415800 12.873600,8,2026-05-29 09:36:36,0,0,-1021,0,-430,0,64,36,322,0,0,-1,-1,-1,-1,-1,-1,0,-1,-1,-1,0,36,8,-1024,0,36,0,0,0,0,0,0,0,297,0,0,0,0,0,0,0,0,0,0,0,0,0,0,0,0,0,0,0,0,0,0,0,0,0,0,0,0,0,0,0,0,0,0,0,0,0,0,0,0,0,0,0,0,0,0,0,0,0,0,0,
2026-05-29,09:36:36.220,8.21,100,100,0,-0.151,5.98,25,0.991,90,0,-0.013,100,100,-2.01,-8.57,0.00,0,55.415800 12.873600,8,2026-05-29 09:36:36,0,0,-1021,0,-429,0,65,36,322,0,0,-1,-1,-1,-1,-1,-1,0,-1,-1,-1,0,36,8,-1024,0,36,0,0,0,0,0,0,0,298,0,0,0,0,0,0,0,0,0,0,0,0,0,0,0,0,0,0,0,0,0,0,0,0,0,0,0,0,0,0,0,0,0,0,0,0,0,0,0,0,0,0,0,0,0,0,0,0,0,0,0,
2026-05-29,09:36:36.330,8.21,100,100,0,-0.149,5.96,25,0.991,90,0,-0.006,100,100,-2.01,-8.57,0.00,0,55.415800 12.873600,8,2026-05-29 09:36:36,0,0,-1021,0,-430,1,65,36,322,0,0,-1,-1,-1,-1,-1,-1,0,-1,-1,-1,0,36,8,-1024,0,36,0,0,0,0,0,0,0,297,0,0,0,0,0,0,0,0,0,0,0,0,0,0,0,0,0,0,0,0,0,0,0,0,0,0,0,0,0,0,0,0,0,0,0,0,0,0,0,0,0,0,0,0,0,0,0,0,0,0,0,
2026-05-29,09:36:36.470,8.21,100,100,0,-0.149,5.97,25,1.001,88,0,-0.006,100,100,-1.98,-8.57,0.00,0,55.415800 12.873600,8,2026-05-29 09:36:36,0,0,-1021,0,-430,0,65,37,322,0,0,-1,-1,-1,-1,-1,-1,0,-1,-1,-1,0,36,8,-1024,0,36,0,0,0,0,0,0,0,297,0,0,0,0,0,0,0,0,0,0,0,0,0,0,0,0,0,0,0,0,0,0,0,0,0,0,0,0,0,0,0,0,0,0,0,0,0,0,0,0,0,0,0,0,0,0,0,0,0,0,0,
2026-05-29,09:36:36.590,8.21,100,100,0,-0.152,5.98,25,0.996,87,0,-0.011,100,100,-2.00,-8.57,0.00,0,55.415800 12.873600,8,2026-05-29 09:36:36,0,0,-1021,0,-429,0,64,35,322,0,0,-1,-1,-1,-1,-1,-1,0,-1,-1,-1,0,36,8,-1024,0,36,0,0,0,0,0,0,0,298,0,0,0,0,0,0,0,0,0,0,0,0,0,0,0,0,0,0,0,0,0,0,0,0,0,0,0,0,0,0,0,0,0,0,0,0,0,0,0,0,0,0,0,0,0,0,0,0,0,0,0,
2026-05-29,09:36:36.710,8.21,100,100,0,-0.149,5.99,25,0.988,88,0,-0.012,100,100,-2.02,-8.57,0.00,0,55.415800 12.873600,8,2026-05-29 09:36:36,0,0,-1021,0,-430,0,64,36,321,0,0,-1,-1,-1,-1,-1,-1,0,-1,-1,-1,0,36,8,-1024,0,36,0,0,0,0,0,0,0,297,0,0,0,0,0,0,0,0,0,0,0,0,0,0,0,0,0,0,0,0,0,0,0,0,0,0,0,0,0,0,0,0,0,0,0,0,0,0,0,0,0,0,0,0,0,0,0,0,0,0,0,
2026-05-29,09:36:36.820,8.21,100,100,0,-0.149,5.99,25,0.988,88,0,-0.012,100,100,-2.02,-8.57,0.00,0,55.415800 12.873600,8,2026-05-29 09:36:36,0,0,-1021,0,-430,0,65,37,322,0,0,-1,-1,-1,-1,-1,-1,0,-1,-1,-1,0,36,8,-1024,0,36,0,0,0,0,0,0,0,298,0,0,0,0,0,0,0,0,0,0,0,0,0,0,0,0,0,0,0,0,0,0,0,0,0,0,0,0,0,0,0,0,0,0,0,0,0,0,0,0,0,0,0,0,0,0,0,0,0,0,0,
2026-05-29,09:36:36.950,8.21,100,100,0,-0.150,5.99,25,0.985,88,0,-0.013,100,100,-2.02,-8.57,0.00,0,55.415800 12.873600,8,2026-05-29 09:36:36,0,0,-1021,0,-430,0,64,38,322,0,0,-1,-1,-1,-1,-1,-1,0,-1,-1,-1,0,36,8,-1024,0,36,0,0,0,0,0,0,0,297,0,0,0,0,0,0,0,0,0,0,0,0,0,0,0,0,0,0,0,0,0,0,0,0,0,0,0,0,0,0,0,0,0,0,0,0,0,0,0,0,0,0,0,0,0,0,0,0,0,0,0,
2026-05-29,09:36:37.070,8.21,100,100,0,-0.150,5.99,25,0.999,87,0,-0.015,100,100,-2.01,-8.57,0.00,0,55.415800 12.873600,8,2026-05-29 09:36:37,0,0,-1021,0,-429,1,64,36,322,0,0,-1,-1,-1,-1,-1,-1,0,-1,-1,-1,0,36,8,-1024,0,36,0,0,0,0,0,0,0,298,0,0,0,0,0,0,0,0,0,0,0,0,0,0,0,0,0,0,0,0,0,0,0,0,0,0,0,0,0,0,0,0,0,0,0,0,0,0,0,0,0,0,0,0,0,0,0,0,0,0,0,
2026-05-29,09:36:37.180,8.21,100,100,0,-0.151,6.00,25,0.999,86,0,-0.015,100,100,-2.01,-8.57,0.00,0,55.415800 12.873600,8,2026-05-29 09:36:37,0,0,-1021,0,-430,0,64,36,322,0,0,-1,-1,-1,-1,-1,-1,0,-1,-1,-1,0,36,8,-1024,0,36,0,0,0,0,0,0,0,297,0,0,0,0,0,0,0,0,0,0,0,0,0,0,0,0,0,0,0,0,0,0,0,0,0,0,0,0,0,0,0,0,0,0,0,0,0,0,0,0,0,0,0,0,0,0,0,0,0,0,0,
2026-05-29,09:36:37.300,8.21,100,100,0,-0.151,5.98,25,0.999,86,0,-0.017,100,100,-2.00,-8.57,0.00,0,55.415800 12.873600,8,2026-05-29 09:36:37,0,0,-1021,0,-430,1,64,36,322,0,0,-1,-1,-1,-1,-1,-1,0,-1,-1,-1,0,36,8,-1024,0,36,0,0,0,0,0,0,0,297,0,0,0,0,0,0,0,0,0,0,0,0,0,0,0,0,0,0,0,0,0,0,0,0,0,0,0,0,0,0,0,0,0,0,0,0,0,0,0,0,0,0,0,0,0,0,0,0,0,0,0,
2026-05-29,09:36:37.410,8.21,100,100,0,-0.147,5.98,25,0.985,85,0,-0.014,100,100,-1.98,-8.57,0.00,0,55.415800 12.873600,8,2026-05-29 09:36:37,0,0,-1021,0,-430,0,65,36,321,0,0,-1,-1,-1,-1,-1,-1,0,-1,-1,-1,0,36,8,-1024,0,36,0,0,0,0,0,0,0,297,0,0,0,0,0,0,0,0,0,0,0,0,0,0,0,0,0,0,0,0,0,0,0,0,0,0,0,0,0,0,0,0,0,0,0,0,0,0,0,0,0,0,0,0,0,0,0,0,0,0,0,
2026-05-29,09:36:37.530,8.21,100,100,0,-0.151,5.99,25,0.988,84,0,-0.010,100,100,-1.98,-8.57,0.00,0,55.415800 12.873600,8,2026-05-29 09:36:37,0,0,-1021,0,-430,0,65,36,322,0,0,-1,-1,-1,-1,-1,-1,0,-1,-1,-1,0,36,8,-1024,0,36,0,0,0,0,0,0,0,297,0,0,0,0,0,0,0,0,0,0,0,0,0,0,0,0,0,0,0,0,0,0,0,0,0,0,0,0,0,0,0,0,0,0,0,0,0,0,0,0,0,0,0,0,0,0,0,0,0,0,0,
2026-05-29,09:36:37.650,8.21,100,100,0,-0.151,5.99,25,0.988,84,0,-0.010,100,100,-1.98,-8.57,0.00,0,55.415800 12.873600,8,2026-05-29 09:36:37,0,0,-1021,0,-430,0,65,37,322,0,0,-1,-1,-1,-1,-1,-1,0,-1,-1,-1,0,36,8,-1024,0,36,0,0,0,0,0,0,0,297,0,0,0,0,0,0,0,0,0,0,0,0,0,0,0,0,0,0,0,0,0,0,0,0,0,0,0,0,0,0,0,0,0,0,0,0,0,0,0,0,0,0,0,0,0,0,0,0,0,0,0,
2026-05-29,09:36:37.770,8.21,100,100,0,-0.149,5.97,25,0.989,83,0,-0.008,100,100,-1.97,-8.57,0.00,0,55.415800 12.873600,8,2026-05-29 09:36:37,0,0,-1021,0,-430,0,64,37,322,0,0,-1,-1,-1,-1,-1,-1,0,-1,-1,-1,0,36,8,-1024,0,36,0,0,0,0,0,0,0,297,0,0,0,0,0,0,0,0,0,0,0,0,0,0,0,0,0,0,0,0,0,0,0,0,0,0,0,0,0,0,0,0,0,0,0,0,0,0,0,0,0,0,0,0,0,0,0,0,0,0,0,
2026-05-29,09:36:37.880,8.21,100,100,0,-0.151,5.98,25,0.995,83,0,-0.010,100,100,-1.97,-8.57,0.00,0,55.415800 12.873600,8,2026-05-29 09:36:37,0,0,-1021,0,-430,0,65,37,322,0,0,-1,-1,-1,-1,-1,-1,0,-1,-1,-1,0,36,8,-1024,0,36,0,0,0,0,0,0,0,298,0,0,0,0,0,0,0,0,0,0,0,0,0,0,0,0,0,0,0,0,0,0,0,0,0,0,0,0,0,0,0,0,0,0,0,0,0,0,0,0,0,0,0,0,0,0,0,0,0,0,0,
2026-05-29,09:36:37.990,8.21,100,100,0,-0.151,5.97,25,0.995,83,0,-0.010,100,100,-1.97,-8.57,0.00,0,55.415800 12.873600,8,2026-05-29 09:36:37,0,0,-1021,0,-430,1,64,36,321,0,0,-1,-1,-1,-1,-1,-1,0,-1,-1,-1,0,36,8,-1024,0,36,0,0,0,0,0,0,0,297,0,0,0,0,0,0,0,0,0,0,0,0,0,0,0,0,0,0,0,0,0,0,0,0,0,0,0,0,0,0,0,0,0,0,0,0,0,0,0,0,0,0,0,0,0,0,0,0,0,0,0,
2026-05-29,09:36:38.100,8.21,100,100,0,-0.149,5.95,25,0.992,82,0,-0.011,100,100,-1.98,-8.57,0.00,0,55.415800 12.873600,8,2026-05-29 09:36:38,0,0,-1021,0,-430,1,64,36,322,0,0,-1,-1,-1,-1,-1,-1,0,-1,-1,-1,0,36,8,-1024,0,36,0,0,0,0,0,0,0,297,0,0,0,0,0,0,0,0,0,0,0,0,0,0,0,0,0,0,0,0,0,0,0,0,0,0,0,0,0,0,0,0,0,0,0,0,0,0,0,0,0,0,0,0,0,0,0,0,0,0,0,
2026-05-29,09:36:38.220,8.21,100,100,0,-0.150,5.96,25,0.988,82,0,-0.011,100,100,-1.99,-8.57,0.00,0,55.415800 12.873600,8,2026-05-29 09:36:38,0,0,-1021,0,-430,0,64,37,322,0,0,-1,-1,-1,-1,-1,-1,0,-1,-1,-1,0,36,8,-1024,0,36,0,0,0,0,0,0,0,297,0,0,0,0,0,0,0,0,0,0,0,0,0,0,0,0,0,0,0,0,0,0,0,0,0,0,0,0,0,0,0,0,0,0,0,0,0,0,0,0,0,0,0,0,0,0,0,0,0,0,0,
2026-05-29,09:36:38.340,8.21,100,100,0,-0.150,5.97,25,0.988,83,0,-0.011,100,100,-1.99,-8.57,0.00,0,55.415800 12.873600,8,2026-05-29 09:36:38,0,0,-1021,0,-430,0,64,37,322,0,0,-1,-1,-1,-1,-1,-1,0,-1,-1,-1,0,36,8,-1024,0,36,0,0,0,0,0,0,0,297,0,0,0,0,0,0,0,0,0,0,0,0,0,0,0,0,0,0,0,0,0,0,0,0,0,0,0,0,0,0,0,0,0,0,0,0,0,0,0,0,0,0,0,0,0,0,0,0,0,0,0,
2026-05-29,09:36:38.460,8.22,100,100,0,-0.152,5.98,25,0.993,83,0,-0.013,100,100,-1.98,-8.57,0.00,0,55.415800 12.873600,8,2026-05-29 09:36:38,0,0,-1021,0,-430,0,64,37,322,0,0,-1,-1,-1,-1,-1,-1,0,-1,-1,-1,0,36,8,-1024,0,36,0,0,0,0,0,0,0,297,0,0,0,0,0,0,0,0,0,0,0,0,0,0,0,0,0,0,0,0,0,0,0,0,0,0,0,0,0,0,0,0,0,0,0,0,0,0,0,0,0,0,0,0,0,0,0,0,0,0,0,
2026-05-29,09:36:38.570,8.22,100,100,0,-0.146,5.98,25,0.991,83,0,-0.012,100,100,-1.98,-8.57,0.00,0,55.415800 12.873600,8,2026-05-29 09:36:38,0,0,-1021,0,-430,0,64,36,322,0,0,-1,-1,-1,-1,-1,-1,0,-1,-1,-1,0,36,8,-1024,0,36,0,0,0,0,0,0,0,297,0,0,0,0,0,0,0,0,0,0,0,0,0,0,0,0,0,0,0,0,0,0,0,0,0,0,0,0,0,0,0,0,0,0,0,0,0,0,0,0,0,0,0,0,0,0,0,0,0,0,0,
2026-05-29,09:36:38.690,8.22,100,100,0,-0.150,5.97,25,0.991,83,0,-0.012,100,100,-1.98,-8.57,0.00,0,55.415800 12.873600,8,2026-05-29 09:36:38,0,0,-1021,0,-430,1,64,36,321,0,0,-1,-1,-1,-1,-1,-1,0,-1,-1,-1,0,36,8,-1024,0,36,0,0,0,0,0,0,0,297,0,0,0,0,0,0,0,0,0,0,0,0,0,0,0,0,0,0,0,0,0,0,0,0,0,0,0,0,0,0,0,0,0,0,0,0,0,0,0,0,0,0,0,0,0,0,0,0,0,0,0,
2026-05-29,09:36:38.800,8.22,100,100,0,-0.150,5.97,25,0.992,83,0,-0.012,100,100,-1.99,-8.57,0.00,0,55.415800 12.873600,8,2026-05-29 09:36:38,0,0,-1021,0,-429,2,65,36,322,0,0,-1,-1,-1,-1,-1,-1,0,-1,-1,-1,0,36,8,-1024,0,36,0,0,0,0,0,0,0,298,0,0,0,0,0,0,0,0,0,0,0,0,0,0,0,0,0,0,0,0,0,0,0,0,0,0,0,0,0,0,0,0,0,0,0,0,0,0,0,0,0,0,0,0,0,0,0,0,0,0,0,
2026-05-29,09:36:38.920,8.22,100,100,0,-0.150,5.98,25,1.000,83,0,-0.013,100,100,-1.98,-8.57,0.00,0,55.415800 12.873600,8,2026-05-29 09:36:38,0,0,-1021,0,-430,0,64,36,322,0,0,-1,-1,-1,-1,-1,-1,0,-1,-1,-1,0,36,8,-1024,0,36,0,0,0,0,0,0,0,298,0,0,0,0,0,0,0,0,0,0,0,0,0,0,0,0,0,0,0,0,0,0,0,0,0,0,0,0,0,0,0,0,0,0,0,0,0,0,0,0,0,0,0,0,0,0,0,0,0,0,0,
2026-05-29,09:36:39.030,8.22,100,100,0,-0.152,5.99,25,1.000,83,0,-0.013,100,100,-1.98,-8.57,0.00,0,55.415800 12.873600,8,2026-05-29 09:36:39,0,0,-1021,0,-430,0,65,35,322,0,0,-1,-1,-1,-1,-1,-1,0,-1,-1,-1,0,36,8,-1024,0,36,0,0,0,0,0,0,0,297,0,0,0,0,0,0,0,0,0,0,0,0,0,0,0,0,0,0,0,0,0,0,0,0,0,0,0,0,0,0,0,0,0,0,0,0,0,0,0,0,0,0,0,0,0,0,0,0,0,0,0,
2026-05-29,09:36:39.140,8.22,100,100,0,-0.152,5.96,25,0.989,84,0,-0.009,100,100,-1.98,-8.57,0.00,0,55.415800 12.873600,8,2026-05-29 09:36:39,0,0,-1021,0,-430,0,65,36,322,0,0,-1,-1,-1,-1,-1,-1,0,-1,-1,-1,0,36,8,-1024,0,36,0,0,0,0,0,0,0,297,0,0,0,0,0,0,0,0,0,0,0,0,0,0,0,0,0,0,0,0,0,0,0,0,0,0,0,0,0,0,0,0,0,0,0,0,0,0,0,0,0,0,0,0,0,0,0,0,0,0,0,
2026-05-29,09:36:39.260,8.22,100,100,0,-0.148,5.97,25,0.990,83,0,-0.014,100,100,-1.99,-8.57,0.00,0,55.415800 12.873600,8,2026-05-29 09:36:39,0,0,-1021,0,-430,0,64,37,322,0,0,-1,-1,-1,-1,-1,-1,0,-1,-1,-1,0,36,8,-1024,0,36,0,0,0,0,0,0,0,297,0,0,0,0,0,0,0,0,0,0,0,0,0,0,0,0,0,0,0,0,0,0,0,0,0,0,0,0,0,0,0,0,0,0,0,0,0,0,0,0,0,0,0,0,0,0,0,0,0,0,0,
2026-05-29,09:36:39.380,8.22,100,100,0,-0.151,5.94,25,0.990,83,0,-0.011,100,100,-1.98,-8.57,0.00,0,55.415800 12.873600,8,2026-05-29 09:36:39,0,0,-1021,0,-429,0,64,37,322,0,0,-1,-1,-1,-1,-1,-1,0,-1,-1,-1,0,36,8,-1024,0,36,0,0,0,0,0,0,0,298,0,0,0,0,0,0,0,0,0,0,0,0,0,0,0,0,0,0,0,0,0,0,0,0,0,0,0,0,0,0,0,0,0,0,0,0,0,0,0,0,0,0,0,0,0,0,0,0,0,0,0,
2026-05-29,09:36:39.490,8.22,100,100,0,-0.151,5.96,25,0.997,83,0,-0.011,100,100,-1.98,-8.57,0.00,0,55.415800 12.873600,8,2026-05-29 09:36:39,0,0,-1021,0,-430,0,65,37,322,0,0,-1,-1,-1,-1,-1,-1,0,-1,-1,-1,0,36,8,-1024,0,36,0,0,0,0,0,0,0,297,0,0,0,0,0,0,0,0,0,0,0,0,0,0,0,0,0,0,0,0,0,0,0,0,0,0,0,0,0,0,0,0,0,0,0,0,0,0,0,0,0,0,0,0,0,0,0,0,0,0,0,
2026-05-29,09:36:39.610,8.22,100,100,0,-0.148,5.97,25,0.993,83,0,-0.014,100,100,-1.99,-8.57,0.00,0,55.415800 12.873600,8,2026-05-29 09:36:39,0,0,-1021,0,-429,1,64,35,322,0,0,-1,-1,-1,-1,-1,-1,0,-1,-1,-1,0,36,8,-1024,0,36,0,0,0,0,0,0,0,298,0,0,0,0,0,0,0,0,0,0,0,0,0,0,0,0,0,0,0,0,0,0,0,0,0,0,0,0,0,0,0,0,0,0,0,0,0,0,0,0,0,0,0,0,0,0,0,0,0,0,0,
2026-05-29,09:36:39.730,8.22,100,100,0,-0.150,5.97,25,0.990,84,0,-0.011,100,100,-1.98,-8.57,0.00,0,55.415800 12.873600,8,2026-05-29 09:36:39,0,0,-1021,0,-429,0,65,34,322,0,0,-1,-1,-1,-1,-1,-1,0,-1,-1,-1,0,36,8,-1024,0,36,0,0,0,0,0,0,0,298,0,0,0,0,0,0,0,0,0,0,0,0,0,0,0,0,0,0,0,0,0,0,0,0,0,0,0,0,0,0,0,0,0,0,0,0,0,0,0,0,0,0,0,0,0,0,0,0,0,0,0,
2026-05-29,09:36:39.850,8.22,100,100,0,-0.150,5.98,25,0.990,85,0,-0.011,100,100,-1.98,-8.57,0.00,0,55.415800 12.873600,8,2026-05-29 09:36:39,0,0,-1021,0,-430,1,64,35,322,0,0,-1,-1,-1,-1,-1,-1,0,-1,-1,-1,0,36,8,-1024,0,36,0,0,0,0,0,0,0,297,0,0,0,0,0,0,0,0,0,0,0,0,0,0,0,0,0,0,0,0,0,0,0,0,0,0,0,0,0,0,0,0,0,0,0,0,0,0,0,0,0,0,0,0,0,0,0,0,0,0,0,
2026-05-29,09:36:39.960,8.22,100,99,0,-0.150,5.99,25,0.986,85,0,-0.010,100,100,-1.98,-8.57,0.00,0,55.415800 12.873600,8,2026-05-29 09:36:39,0,0,-1021,0,-429,0,65,36,322,0,0,-1,-1,-1,-1,-1,-1,0,-1,-1,-1,0,36,8,-1024,0,36,0,0,0,0,0,0,0,298,0,0,0,0,0,0,0,0,0,0,0,0,0,0,0,0,0,0,0,0,0,0,0,0,0,0,0,0,0,0,0,0,0,0,0,0,0,0,0,0,0,0,0,0,0,0,0,0,0,0,0,
2026-05-29,09:36:40.070,8.22,100,99,0,-0.150,5.99,25,0.990,85,0,-0.011,100,100,-1.98,-8.57,0.00,0,55.415800 12.873600,8,2026-05-29 09:36:40,0,0,-1021,0,-430,0,64,36,321,0,0,-1,-1,-1,-1,-1,-1,0,-1,-1,-1,0,36,8,-1024,0,36,0,0,0,0,0,0,0,298,0,0,0,0,0,0,0,0,0,0,0,0,0,0,0,0,0,0,0,0,0,0,0,0,0,0,0,0,0,0,0,0,0,0,0,0,0,0,0,0,0,0,0,0,0,0,0,0,0,0,0,
2026-05-29,09:36:40.180,8.22,100,99,0,-0.150,5.99,25,0.990,84,0,-0.011,100,100,-1.98,-8.57,0.00,0,55.415800 12.873600,8,2026-05-29 09:36:40,0,0,-1021,0,-430,0,64,35,322,0,0,-1,-1,-1,-1,-1,-1,0,-1,-1,-1,0,36,8,-1024,0,36,0,0,0,0,0,0,0,297,0,0,0,0,0,0,0,0,0,0,0,0,0,0,0,0,0,0,0,0,0,0,0,0,0,0,0,0,0,0,0,0,0,0,0,0,0,0,0,0,0,0,0,0,0,0,0,0,0,0,0,
2026-05-29,09:36:40.300,8.22,100,99,0,-0.151,6.00,25,0.988,86,0,-0.012,100,100,-1.98,-8.57,0.00,0,55.415800 12.873600,8,2026-05-29 09:36:40,0,0,-1021,0,-429,0,64,36,322,0,0,-1,-1,-1,-1,-1,-1,0,-1,-1,-1,0,36,8,-1024,0,36,0,0,0,0,0,0,0,298,0,0,0,0,0,0,0,0,0,0,0,0,0,0,0,0,0,0,0,0,0,0,0,0,0,0,0,0,0,0,0,0,0,0,0,0,0,0,0,0,0,0,0,0,0,0,0,0,0,0,0,
2026-05-29,09:36:40.420,8.22,100,97,0,-0.147,6.00,25,0.984,89,0,-0.012,100,100,-2.00,-8.57,0.00,1,55.415800 12.873600,8,2026-05-29 09:36:40,0,0,-1021,0,-430,2,65,36,321,0,0,-1,-1,-1,-1,-1,-1,0,-1,-1,-1,0,36,8,-1024,0,36,0,0,0,0,0,0,0,297,0,0,0,0,0,0,0,0,0,0,0,0,0,0,0,0,0,0,0,0,0,0,0,0,0,0,0,0,0,0,0,0,0,0,0,0,0,0,0,0,0,0,0,0,0,0,0,0,0,0,0,
2026-05-29,09:36:40.540,8.22,100,96,0,-0.147,6.00,25,0.984,91,0,-0.012,100,100,-2.00,-8.57,0.00,1,55.415800 12.873600,8,2026-05-29 09:36:40,0,0,-1021,0,-429,0,64,36,322,0,0,-1,-1,-1,-1,-1,-1,0,-1,-1,-1,0,36,8,-1024,0,36,0,0,0,0,0,0,0,297,0,0,0,0,0,0,0,0,0,0,0,0,0,0,0,0,0,0,0,0,0,0,0,0,0,0,0,0,0,0,0,0,0,0,0,0,0,0,0,0,0,0,0,0,0,0,0,0,0,0,0,
2026-05-29,09:36:40.650,8.21,100,97,0,-0.150,5.98,25,0.999,91,0,-0.012,100,100,-1.99,-8.57,0.00,1,55.415800 12.873600,8,2026-05-29 09:36:40,0,0,-1021,0,-429,0,65,34,322,0,0,-1,-1,-1,-1,-1,-1,0,-1,-1,-1,0,36,8,-1024,0,36,0,0,0,0,0,0,0,298,0,0,0,0,0,0,0,0,0,0,0,0,0,0,0,0,0,0,0,0,0,0,0,0,0,0,0,0,0,0,0,0,0,0,0,0,0,0,0,0,0,0,0,0,0,0,0,0,0,0,0,
2026-05-29,09:36:40.770,8.21,100,97,0,-0.151,5.98,25,0.985,91,0,-0.011,100,100,-1.98,-8.57,0.00,1,55.415800 12.873600,8,2026-05-29 09:36:40,0,0,-1021,0,-430,0,64,34,322,0,0,-1,-1,-1,-1,-1,-1,0,-1,-1,-1,0,36,8,-1024,0,36,0,0,0,0,0,0,0,297,0,0,0,0,0,0,0,0,0,0,0,0,0,0,0,0,0,0,0,0,0,0,0,0,0,0,0,0,0,0,0,0,0,0,0,0,0,0,0,0,0,0,0,0,0,0,0,0,0,0,0,
2026-05-29,09:36:40.890,8.21,100,98,0,-0.151,5.99,25,0.985,91,0,-0.012,100,100,-1.98,-8.57,0.00,1,55.415800 12.873600,8,2026-05-29 09:36:40,0,0,-1021,0,-430,0,64,37,322,0,0,-1,-1,-1,-1,-1,-1,0,-1,-1,-1,0,36,8,-1024,0,36,0,0,0,0,0,0,0,297,0,0,0,0,0,0,0,0,0,0,0,0,0,0,0,0,0,0,0,0,0,0,0,0,0,0,0,0,0,0,0,0,0,0,0,0,0,0,0,0,0,0,0,0,0,0,0,0,0,0,0,
2026-05-29,09:36:41.000,8.21,100,97,0,-0.151,5.99,25,0.993,92,0,-0.012,100,100,-1.98,-8.57,0.00,1,55.415800 12.873600,8,2026-05-29 09:36:40,0,0,-1021,0,-429,0,64,35,322,0,0,-1,-1,-1,-1,-1,-1,0,-1,-1,-1,0,36,8,-1024,0,36,0,0,0,0,0,0,0,298,0,0,0,0,0,0,0,0,0,0,0,0,0,0,0,0,0,0,0,0,0,0,0,0,0,0,0,0,0,0,0,0,0,0,0,0,0,0,0,0,0,0,0,0,0,0,0,0,0,0,0,
2026-05-29,09:36:41.110,8.22,100,98,0,-0.147,5.97,25,0.987,93,0,-0.012,100,100,-1.98,-8.57,0.00,1,55.415800 12.873600,8,2026-05-29 09:36:41,0,0,-1020,0,-430,2,64,36,322,0,0,-1,-1,-1,-1,-1,-1,0,-1,-1,-1,0,36,8,-1024,0,36,0,0,0,0,0,0,0,297,0,0,0,0,0,0,0,0,0,0,0,0,0,0,0,0,0,0,0,0,0,0,0,0,0,0,0,0,0,0,0,0,0,0,0,0,0,0,0,0,0,0,0,0,0,0,0,0,0,0,0,
2026-05-29,09:36:41.230,8.21,100,98,0,-0.150,5.98,25,0.993,94,0,-0.013,100,100,-1.98,-8.57,0.00,1,55.415800 12.873600,8,2026-05-29 09:36:41,0,0,-1021,0,-429,2,65,36,321,0,0,-1,-1,-1,-1,-1,-1,0,-1,-1,-1,0,36,8,-1024,0,36,0,0,0,0,0,0,0,298,0,0,0,0,0,0,0,0,0,0,0,0,0,0,0,0,0,0,0,0,0,0,0,0,0,0,0,0,0,0,0,0,0,0,0,0,0,0,0,0,0,0,0,0,0,0,0,0,0,0,0,
2026-05-29,09:36:41.340,8.21,100,96,0,-0.150,5.94,25,0.993,94,0,-0.013,100,100,-1.98,-8.57,0.00,1,55.415800 12.873600,8,2026-05-29 09:36:41,0,0,-1021,0,-430,0,64,36,322,0,0,-1,-1,-1,-1,-1,-1,0,-1,-1,-1,0,36,8,-1024,0,36,0,0,0,0,0,0,0,297,0,0,0,0,0,0,0,0,0,0,0,0,0,0,0,0,0,0,0,0,0,0,0,0,0,0,0,0,0,0,0,0,0,0,0,0,0,0,0,0,0,0,0,0,0,0,0,0,0,0,0,
2026-05-29,09:36:41.460,8.21,100,95,0,-0.151,5.96,25,0.995,93,0,-0.014,100,100,-1.99,-8.57,0.00,0,55.415800 12.873600,8,2026-05-29 09:36:41,0,0,-1021,0,-430,1,64,35,322,0,0,-1,-1,-1,-1,-1,-1,0,-1,-1,-1,0,36,8,-1024,0,36,0,0,0,0,0,0,0,297,0,0,0,0,0,0,0,0,0,0,0,0,0,0,0,0,0,0,0,0,0,0,0,0,0,0,0,0,0,0,0,0,0,0,0,0,0,0,0,0,0,0,0,0,0,0,0,0,0,0,0,
2026-05-29,09:36:41.570,8.21,100,95,0,-0.151,5.97,25,0.995,93,0,-0.014,100,100,-1.99,-8.57,0.00,0,55.415800 12.873600,8,2026-05-29 09:36:41,0,0,-1020,0,-429,0,63,35,322,0,0,-1,-1,-1,-1,-1,-1,0,-1,-1,-1,0,36,8,-1024,0,36,0,0,0,0,0,0,0,298,0,0,0,0,0,0,0,0,0,0,0,0,0,0,0,0,0,0,0,0,0,0,0,0,0,0,0,0,0,0,0,0,0,0,0,0,0,0,0,0,0,0,0,0,0,0,0,0,0,0,0,
2026-05-29,09:36:41.690,8.21,100,95,0,-0.151,5.95,25,0.988,94,0,-0.014,100,100,-1.99,-8.57,0.00,0,55.415800 12.873600,8,2026-05-29 09:36:41,0,0,-1021,0,-429,1,64,34,321,0,0,-1,-1,-1,-1,-1,-1,0,-1,-1,-1,0,36,8,-1024,0,36,0,0,0,0,0,0,0,298,0,0,0,0,0,0,0,0,0,0,0,0,0,0,0,0,0,0,0,0,0,0,0,0,0,0,0,0,0,0,0,0,0,0,0,0,0,0,0,0,0,0,0,0,0,0,0,0,0,0,0,
2026-05-29,09:36:41.810,8.21,100,95,0,-0.149,5.96,25,0.996,95,0,-0.012,100,100,-1.98,-8.57,0.00,0,55.415800 12.873600,8,2026-05-29 09:36:41,0,0,-1021,0,-430,0,63,36,322,0,0,-1,-1,-1,-1,-1,-1,0,-1,-1,-1,0,36,8,-1024,0,36,0,0,0,0,0,0,0,297,0,0,0,0,0,0,0,0,0,0,0,0,0,0,0,0,0,0,0,0,0,0,0,0,0,0,0,0,0,0,0,0,0,0,0,0,0,0,0,0,0,0,0,0,0,0,0,0,0,0,0,
2026-05-29,09:36:41.930,8.21,100,95,0,-0.150,5.98,25,0.992,95,0,-0.012,100,100,-1.99,-8.57,0.00,0,55.415800 12.873600,8,2026-05-29 09:36:41,0,0,-1021,0,-430,1,65,34,322,0,0,-1,-1,-1,-1,-1,-1,0,-1,-1,-1,0,36,8,-1024,0,36,0,0,0,0,0,0,0,297,0,0,0,0,0,0,0,0,0,0,0,0,0,0,0,0,0,0,0,0,0,0,0,0,0,0,0,0,0,0,0,0,0,0,0,0,0,0,0,0,0,0,0,0,0,0,0,0,0,0,0,
2026-05-29,09:36:42.050,8.21,100,95,0,-0.150,5.96,25,0.992,94,0,-0.012,100,100,-1.99,-8.57,0.00,1,55.415800 12.873600,8,2026-05-29 09:36:42,0,0,-1021,0,-429,0,64,37,322,0,0,-1,-1,-1,-1,-1,-1,0,-1,-1,-1,0,36,8,-1024,0,36,0,0,0,0,0,0,0,298,0,0,0,0,0,0,0,0,0,0,0,0,0,0,0,0,0,0,0,0,0,0,0,0,0,0,0,0,0,0,0,0,0,0,0,0,0,0,0,0,0,0,0,0,0,0,0,0,0,0,0,
2026-05-29,09:36:42.170,8.21,100,96,0,-0.151,5.97,25,1.000,93,0,-0.013,100,100,-1.98,-8.57,0.00,1,55.415800 12.873600,8,2026-05-29 09:36:42,0,0,-1021,0,-430,0,64,36,322,0,0,-1,-1,-1,-1,-1,-1,0,-1,-1,-1,0,36,8,-1024,0,36,0,0,0,0,0,0,0,297,0,0,0,0,0,0,0,0,0,0,0,0,0,0,0,0,0,0,0,0,0,0,0,0,0,0,0,0,0,0,0,0,0,0,0,0,0,0,0,0,0,0,0,0,0,0,0,0,0,0,0,
2026-05-29,09:36:42.280,8.21,100,95,0,-0.152,5.98,25,0.995,91,0,-0.012,100,100,-1.98,-8.57,0.00,1,55.415800 12.873600,8,2026-05-29 09:36:42,0,0,-1021,0,-429,0,65,36,322,0,0,-1,-1,-1,-1,-1,-1,0,-1,-1,-1,0,36,8,-1024,0,36,0,0,0,0,0,0,0,298,0,0,0,0,0,0,0,0,0,0,0,0,0,0,0,0,0,0,0,0,0,0,0,0,0,0,0,0,0,0,0,0,0,0,0,0,0,0,0,0,0,0,0,0,0,0,0,0,0,0,0,
2026-05-29,09:36:42.400,8.21,100,94,0,-0.151,5.96,25,0.995,89,0,-0.012,100,100,-1.98,-8.57,0.00,1,55.415800 12.873600,8,2026-05-29 09:36:42,0,0,-1021,0,-429,1,64,35,321,0,0,-1,-1,-1,-1,-1,-1,0,-1,-1,-1,0,36,8,-1024,0,36,0,0,0,0,0,0,0,298,0,0,0,0,0,0,0,0,0,0,0,0,0,0,0,0,0,0,0,0,0,0,0,0,0,0,0,0,0,0,0,0,0,0,0,0,0,0,0,0,0,0,0,0,0,0,0,0,0,0,0,
2026-05-29,09:36:42.520,8.21,100,93,0,-0.151,5.97,25,0.991,87,0,-0.012,100,100,-1.99,-8.57,0.00,2,55.415800 12.873600,8,2026-05-29 09:36:42,0,0,-1021,0,-429,0,65,34,322,0,0,-1,-1,-1,-1,-1,-1,0,-1,-1,-1,0,36,8,-1024,0,36,0,0,0,0,0,0,0,298,0,0,0,0,0,0,0,0,0,0,0,0,0,0,0,0,0,0,0,0,0,0,0,0,0,0,0,0,0,0,0,0,0,0,0,0,0,0,0,0,0,0,0,0,0,0,0,0,0,0,0,
2026-05-29,09:36:42.640,8.21,100,93,0,-0.150,5.98,25,0.994,83,0,-0.012,100,100,-1.99,-8.57,0.00,2,55.415800 12.873600,8,2026-05-29 09:36:42,0,0,-1022,0,-429,0,63,34,321,0,0,-1,-1,-1,-1,-1,-1,0,-1,-1,-1,0,36,8,-1024,0,36,0,0,0,0,0,0,0,298,0,0,0,0,0,0,0,0,0,0,0,0,0,0,0,0,0,0,0,0,0,0,0,0,0,0,0,0,0,0,0,0,0,0,0,0,0,0,0,0,0,0,0,0,0,0,0,0,0,0,0,
2026-05-29,09:36:42.760,8.21,100,94,0,-0.152,5.99,25,1.001,84,0,-0.012,100,100,-1.99,-8.58,0.00,2,55.415800 12.873600,8,2026-05-29 09:36:42,0,0,-1022,0,-430,1,65,36,322,0,0,-1,-1,-1,-1,-1,-1,0,-1,-1,-1,0,36,8,-1024,0,36,0,0,0,0,0,0,0,297,0,0,0,0,0,0,0,0,0,0,0,0,0,0,0,0,0,0,0,0,0,0,0,0,0,0,0,0,0,0,0,0,0,0,0,0,0,0,0,0,0,0,0,0,0,0,0,0,0,0,0,
2026-05-29,09:36:42.870,8.21,100,96,0,-0.152,5.99,25,1.001,84,0,-0.012,100,100,-1.99,-8.58,0.00,2,55.415800 12.873600,8,2026-05-29 09:36:42,0,0,-1021,0,-430,0,64,36,322,0,0,-1,-1,-1,-1,-1,-1,0,-1,-1,-1,0,36,8,-1024,0,36,0,0,0,0,0,0,0,297,0,0,0,0,0,0,0,0,0,0,0,0,0,0,0,0,0,0,0,0,0,0,0,0,0,0,0,0,0,0,0,0,0,0,0,0,0,0,0,0,0,0,0,0,0,0,0,0,0,0,0,
2026-05-29,09:36:42.990,8.21,100,96,0,-0.148,5.99,25,0.989,84,0,-0.012,100,100,-1.98,-8.58,0.00,1,55.415800 12.873600,8,2026-05-29 09:36:42,0,0,-1022,0,-430,0,64,37,322,0,0,-1,-1,-1,-1,-1,-1,0,-1,-1,-1,0,36,8,-1024,0,36,0,0,0,0,0,0,0,297,0,0,0,0,0,0,0,0,0,0,0,0,0,0,0,0,0,0,0,0,0,0,0,0,0,0,0,0,0,0,0,0,0,0,0,0,0,0,0,0,0,0,0,0,0,0,0,0,0,0,0,
2026-05-29,09:36:43.100,8.21,100,96,0,-0.150,5.97,25,1.000,84,0,-0.013,100,100,-1.99,-8.58,0.00,1,55.415800 12.873600,8,2026-05-29 09:36:43,0,0,-1021,0,-430,0,64,34,322,0,0,-1,-1,-1,-1,-1,-1,0,-1,-1,-1,0,36,8,-1024,0,36,0,0,0,0,0,0,0,297,0,0,0,0,0,0,0,0,0,0,0,0,0,0,0,0,0,0,0,0,0,0,0,0,0,0,0,0,0,0,0,0,0,0,0,0,0,0,0,0,0,0,0,0,0,0,0,0,0,0,0,
2026-05-29,09:36:43.230,8.21,100,94,0,-0.150,5.96,25,1.000,83,0,-0.013,100,100,-1.99,-8.58,0.00,1,55.415800 12.873600,8,2026-05-29 09:36:43,0,0,-1021,0,-430,0,65,35,322,0,0,-1,-1,-1,-1,-1,-1,0,-1,-1,-1,0,36,8,-1024,0,36,0,0,0,0,0,0,0,297,0,0,0,0,0,0,0,0,0,0,0,0,0,0,0,0,0,0,0,0,0,0,0,0,0,0,0,0,0,0,0,0,0,0,0,0,0,0,0,0,0,0,0,0,0,0,0,0,0,0,0,
2026-05-29,09:36:43.370,8.21,100,92,0,-0.151,5.94,25,0.995,82,0,-0.013,100,100,-1.99,-8.58,0.00,1,55.415800 12.873600,8,2026-05-29 09:36:43,0,0,-1022,0,-429,2,64,36,322,0,0,-1,-1,-1,-1,-1,-1,0,-1,-1,-1,0,36,8,-1024,0,36,0,0,0,0,0,0,0,298,0,0,0,0,0,0,0,0,0,0,0,0,0,0,0,0,0,0,0,0,0,0,0,0,0,0,0,0,0,0,0,0,0,0,0,0,0,0,0,0,0,0,0,0,0,0,0,0,0,0,0,
2026-05-29,09:36:43.490,8.21,100,91,0,-0.152,5.93,25,0.993,80,0,-0.013,100,100,-1.99,-8.58,0.00,0,55.415800 12.873600,8,2026-05-29 09:36:43,0,0,-1022,0,-429,0,65,34,322,0,0,-1,-1,-1,-1,-1,-1,0,-1,-1,-1,0,36,8,-1024,0,36,0,0,0,0,0,0,0,298,0,0,0,0,0,0,0,0,0,0,0,0,0,0,0,0,0,0,0,0,0,0,0,0,0,0,0,0,0,0,0,0,0,0,0,0,0,0,0,0,0,0,0,0,0,0,0,0,0,0,0,
2026-05-29,09:36:43.610,8.21,100,93,0,-0.150,5.96,25,1.002,81,0,-0.012,100,100,-1.99,-8.58,0.00,0,55.415800 12.873600,8,2026-05-29 09:36:43,0,0,-1022,0,-429,0,64,34,322,0,0,-1,-1,-1,-1,-1,-1,0,-1,-1,-1,0,36,8,-1024,0,36,0,0,0,0,0,0,0,297,0,0,0,0,0,0,0,0,0,0,0,0,0,0,0,0,0,0,0,0,0,0,0,0,0,0,0,0,0,0,0,0,0,0,0,0,0,0,0,0,0,0,0,0,0,0,0,0,0,0,0,
2026-05-29,09:36:43.720,8.21,100,93,0,-0.150,5.95,25,1.002,80,0,-0.012,100,100,-1.99,-8.58,0.00,0,55.415800 12.873600,8,2026-05-29 09:36:43,0,0,-1022,0,-429,1,64,35,322,0,0,-1,-1,-1,-1,-1,-1,0,-1,-1,-1,0,36,8,-1024,0,36,0,0,0,0,0,0,0,298,0,0,0,0,0,0,0,0,0,0,0,0,0,0,0,0,0,0,0,0,0,0,0,0,0,0,0,0,0,0,0,0,0,0,0,0,0,0,0,0,0,0,0,0,0,0,0,0,0,0,0,
2026-05-29,09:36:43.840,8.21,100,91,0,-0.147,5.96,25,0.994,79,0,-0.013,100,100,-1.98,-8.58,0.00,0,55.415800 12.873600,8,2026-05-29 09:36:43,0,0,-1021,0,-429,0,64,36,322,0,0,-1,-1,-1,-1,-1,-1,0,-1,-1,-1,0,36,8,-1024,0,36,0,0,0,0,0,0,0,298,0,0,0,0,0,0,0,0,0,0,0,0,0,0,0,0,0,0,0,0,0,0,0,0,0,0,0,0,0,0,0,0,0,0,0,0,0,0,0,0,0,0,0,0,0,0,0,0,0,0,0,
2026-05-29,09:36:43.950,8.21,100,90,0,-0.149,5.94,25,0.990,79,0,-0.013,100,100,-1.98,-8.58,0.00,0,55.415800 12.873600,8,2026-05-29 09:36:43,0,0,-1021,0,-430,0,64,35,322,0,0,-1,-1,-1,-1,-1,-1,0,-1,-1,-1,0,36,8,-1024,0,36,0,0,0,0,0,0,0,297,0,0,0,0,0,0,0,0,0,0,0,0,0,0,0,0,0,0,0,0,0,0,0,0,0,0,0,0,0,0,0,0,0,0,0,0,0,0,0,0,0,0,0,0,0,0,0,0,0,0,0,
2026-05-29,09:36:44.080,8.21,100,89,0,-0.149,5.96,25,0.990,79,0,-0.013,100,100,-1.98,-8.58,0.00,1,55.415800 12.873600,8,2026-05-29 09:36:44,0,0,-1021,0,-430,0,65,36,322,0,0,-1,-1,-1,-1,-1,-1,0,-1,-1,-1,0,36,8,-1024,0,36,0,0,0,0,0,0,0,298,0,0,0,0,0,0,0,0,0,0,0,0,0,0,0,0,0,0,0,0,0,0,0,0,0,0,0,0,0,0,0,0,0,0,0,0,0,0,0,0,0,0,0,0,0,0,0,0,0,0,0,
2026-05-29,09:36:44.190,8.21,100,89,0,-0.150,5.97,25,0.995,80,0,-0.013,100,100,-1.98,-8.58,0.00,1,55.415800 12.873600,8,2026-05-29 09:36:44,0,0,-1022,0,-430,0,65,36,322,0,0,-1,-1,-1,-1,-1,-1,0,-1,-1,-1,0,36,8,-1024,0,36,0,0,0,0,0,0,0,297,0,0,0,0,0,0,0,0,0,0,0,0,0,0,0,0,0,0,0,0,0,0,0,0,0,0,0,0,0,0,0,0,0,0,0,0,0,0,0,0,0,0,0,0,0,0,0,0,0,0,0,
2026-05-29,09:36:44.330,8.21,100,90,0,-0.149,5.98,25,0.999,82,0,-0.013,100,100,-1.98,-8.57,0.00,1,55.415800 12.873600,8,2026-05-29 09:36:44,0,0,-1021,0,-430,0,64,35,322,0,0,-1,-1,-1,-1,-1,-1,0,-1,-1,-1,0,36,8,-1024,0,36,0,0,0,0,0,0,0,297,0,0,0,0,0,0,0,0,0,0,0,0,0,0,0,0,0,0,0,0,0,0,0,0,0,0,0,0,0,0,0,0,0,0,0,0,0,0,0,0,0,0,0,0,0,0,0,0,0,0,0,
2026-05-29,09:36:44.450,8.21,100,89,0,-0.150,5.99,25,0.999,82,0,-0.013,100,100,-1.98,-8.57,0.00,0,55.415800 12.873600,8,2026-05-29 09:36:44,0,0,-1021,0,-430,0,64,34,322,0,0,-1,-1,-1,-1,-1,-1,0,-1,-1,-1,0,36,8,-1024,0,36,0,0,0,0,0,0,0,297,0,0,0,0,0,0,0,0,0,0,0,0,0,0,0,0,0,0,0,0,0,0,0,0,0,0,0,0,0,0,0,0,0,0,0,0,0,0,0,0,0,0,0,0,0,0,0,0,0,0,0,
2026-05-29,09:36:44.560,8.21,100,89,0,-0.150,5.99,25,0.999,81,0,-0.013,100,100,-1.98,-8.57,0.00,0,55.415800 12.873600,8,2026-05-29 09:36:44,0,0,-1021,0,-430,0,64,35,322,0,0,-1,-1,-1,-1,-1,-1,0,-1,-1,-1,0,36,8,-1024,0,36,0,0,0,0,0,0,0,297,0,0,0,0,0,0,0,0,0,0,0,0,0,0,0,0,0,0,0,0,0,0,0,0,0,0,0,0,0,0,0,0,0,0,0,0,0,0,0,0,0,0,0,0,0,0,0,0,0,0,0,
2026-05-29,09:36:44.670,8.21,100,86,0,-0.152,5.99,25,0.999,80,0,-0.014,100,100,-1.98,-8.57,0.00,0,55.415800 12.873600,8,2026-05-29 09:36:44,0,0,-1021,0,-429,0,64,34,322,0,0,-1,-1,-1,-1,-1,-1,0,-1,-1,-1,0,36,8,-1024,0,36,0,0,0,0,0,0,0,298,0,0,0,0,0,0,0,0,0,0,0,0,0,0,0,0,0,0,0,0,0,0,0,0,0,0,0,0,0,0,0,0,0,0,0,0,0,0,0,0,0,0,0,0,0,0,0,0,0,0,0,
2026-05-29,09:36:44.780,8.21,100,85,0,-0.153,5.99,25,1.006,81,0,-0.014,100,100,-1.98,-8.57,0.00,0,55.415800 12.873600,8,2026-05-29 09:36:44,0,0,-1021,0,-429,0,64,35,322,0,0,-1,-1,-1,-1,-1,-1,0,-1,-1,-1,0,36,8,-1024,0,36,0,0,0,0,0,0,0,297,0,0,0,0,0,0,0,0,0,0,0,0,0,0,0,0,0,0,0,0,0,0,0,0,0,0,0,0,0,0,0,0,0,0,0,0,0,0,0,0,0,0,0,0,0,0,0,0,0,0,0,
2026-05-29,09:36:44.900,8.21,100,86,0,-0.153,6.00,25,1.006,79,0,-0.014,100,100,-1.97,-8.57,0.00,0,55.415800 12.873600,8,2026-05-29 09:36:44,0,0,-1021,0,-430,0,64,37,322,0,0,-1,-1,-1,-1,-1,-1,0,-1,-1,-1,0,36,8,-1024,0,36,0,0,0,0,0,0,0,297,0,0,0,0,0,0,0,0,0,0,0,0,0,0,0,0,0,0,0,0,0,0,0,0,0,0,0,0,0,0,0,0,0,0,0,0,0,0,0,0,0,0,0,0,0,0,0,0,0,0,0,
2026-05-29,09:36:45.020,8.21,100,87,0,-0.147,6.00,25,0.988,77,0,-0.013,100,100,-1.97,-8.58,0.00,0,55.415800 12.873600,8,2026-05-29 09:36:45,0,0,-1022,0,-430,0,64,35,322,0,0,-1,-1,-1,-1,-1,-1,0,-1,-1,-1,0,36,8,-1024,0,36,0,0,0,0,0,0,0,297,0,0,0,0,0,0,0,0,0,0,0,0,0,0,0,0,0,0,0,0,0,0,0,0,0,0,0,0,0,0,0,0,0,0,0,0,0,0,0,0,0,0,0,0,0,0,0,0,0,0,0,
2026-05-29,09:36:45.140,8.21,100,87,0,-0.150,6.00,25,0.990,76,0,-0.013,100,100,-1.97,-8.58,0.00,0,55.415800 12.873600,8,2026-05-29 09:36:45,0,0,-1021,0,-429,0,63,35,322,0,0,-1,-1,-1,-1,-1,-1,0,-1,-1,-1,0,36,8,-1024,0,36,0,0,0,0,0,0,0,298,0,0,0,0,0,0,0,0,0,0,0,0,0,0,0,0,0,0,0,0,0,0,0,0,0,0,0,0,0,0,0,0,0,0,0,0,0,0,0,0,0,0,0,0,0,0,0,0,0,0,0,
2026-05-29,09:36:45.260,8.21,100,88,0,-0.150,6.00,25,0.990,76,0,-0.013,100,100,-1.97,-8.58,0.00,0,55.415800 12.873600,8,2026-05-29 09:36:45,0,0,-1021,0,-429,1,65,38,322,0,0,-1,-1,-1,-1,-1,-1,0,-1,-1,-1,0,36,8,-1024,0,36,0,0,0,0,0,0,0,298,0,0,0,0,0,0,0,0,0,0,0,0,0,0,0,0,0,0,0,0,0,0,0,0,0,0,0,0,0,0,0,0,0,0,0,0,0,0,0,0,0,0,0,0,0,0,0,0,0,0,0,
2026-05-29,09:36:45.400,8.21,100,90,0,-0.150,6.00,25,0.993,79,0,-0.012,100,100,-1.97,-8.58,0.00,0,55.415800 12.873600,8,2026-05-29 09:36:45,0,0,-1021,0,-430,0,64,35,321,0,0,-1,-1,-1,-1,-1,-1,0,-1,-1,-1,0,36,8,-1024,0,36,0,0,0,0,0,0,0,297,0,0,0,0,0,0,0,0,0,0,0,0,0,0,0,0,0,0,0,0,0,0,0,0,0,0,0,0,0,0,0,0,0,0,0,0,0,0,0,0,0,0,0,0,0,0,0,0,0,0,0,
2026-05-29,09:36:45.520,8.21,100,90,0,-0.147,6.00,25,0.994,81,0,-0.012,100,100,-1.98,-8.57,0.00,1,55.415800 12.873600,8,2026-05-29 09:36:45,0,0,-1021,0,-430,0,64,35,321,0,0,-1,-1,-1,-1,-1,-1,0,-1,-1,-1,0,36,8,-1024,0,36,0,0,0,0,0,0,0,297,0,0,0,0,0,0,0,0,0,0,0,0,0,0,0,0,0,0,0,0,0,0,0,0,0,0,0,0,0,0,0,0,0,0,0,0,0,0,0,0,0,0,0,0,0,0,0,0,0,0,0,
2026-05-29,09:36:45.640,8.21,100,90,0,-0.148,6.00,25,0.983,82,0,-0.013,100,100,-1.98,-8.57,0.00,1,55.415800 12.873600,8,2026-05-29 09:36:45,0,0,-1021,0,-429,0,63,34,321,0,0,-1,-1,-1,-1,-1,-1,0,-1,-1,-1,0,36,8,-1024,0,36,0,0,0,0,0,0,0,298,0,0,0,0,0,0,0,0,0,0,0,0,0,0,0,0,0,0,0,0,0,0,0,0,0,0,0,0,0,0,0,0,0,0,0,0,0,0,0,0,0,0,0,0,0,0,0,0,0,0,0,
2026-05-29,09:36:45.760,8.21,100,91,0,-0.148,6.00,25,0.983,84,0,-0.013,100,100,-1.98,-8.57,0.00,1,55.415800 12.873600,8,2026-05-29 09:36:45,0,0,-1021,0,-429,0,64,35,321,0,0,-1,-1,-1,-1,-1,-1,0,-1,-1,-1,0,36,8,-1024,0,36,0,0,0,0,0,0,0,298,0,0,0,0,0,0,0,0,0,0,0,0,0,0,0,0,0,0,0,0,0,0,0,0,0,0,0,0,0,0,0,0,0,0,0,0,0,0,0,0,0,0,0,0,0,0,0,0,0,0,0,
2026-05-29,09:36:45.870,8.21,100,91,0,-0.151,6.00,25,0.993,83,0,-0.012,100,100,-1.98,-8.57,0.00,1,55.415800 12.873600,8,2026-05-29 09:36:45,0,0,-1021,0,-429,0,64,36,322,0,0,-1,-1,-1,-1,-1,-1,0,-1,-1,-1,0,36,8,-1024,0,36,0,0,0,0,0,0,0,298,0,0,0,0,0,0,0,0,0,0,0,0,0,0,0,0,0,0,0,0,0,0,0,0,0,0,0,0,0,0,0,0,0,0,0,0,0,0,0,0,0,0,0,0,0,0,0,0,0,0,0,
2026-05-29,09:36:46.010,8.21,100,91,0,-0.146,5.97,25,0.984,81,0,-0.013,100,100,-1.98,-8.57,0.00,0,55.415800 12.873600,7,2026-05-29 09:36:46,0,0,-1022,0,-429,1,64,36,321,0,0,-1,-1,-1,-1,-1,-1,0,-1,-1,-1,0,36,8,-1024,0,36,0,0,0,0,0,0,0,298,0,0,0,0,0,0,0,0,0,0,0,0,0,0,0,0,0,0,0,0,0,0,0,0,0,0,0,0,0,0,0,0,0,0,0,0,0,0,0,0,0,0,0,0,0,0,0,0,0,0,0,
2026-05-29,09:36:46.120,8.21,100,92,0,-0.151,5.95,25,0.984,80,0,-0.012,100,100,-1.98,-8.57,0.00,0,55.415800 12.873600,7,2026-05-29 09:36:46,0,0,-1021,0,-430,0,64,36,321,0,0,-1,-1,-1,-1,-1,-1,0,-1,-1,-1,0,36,8,-1024,0,36,0,0,0,0,0,0,0,297,0,0,0,0,0,0,0,0,0,0,0,0,0,0,0,0,0,0,0,0,0,0,0,0,0,0,0,0,0,0,0,0,0,0,0,0,0,0,0,0,0,0,0,0,0,0,0,0,0,0,0,
2026-05-29,09:36:46.230,8.21,100,92,0,-0.151,5.97,25,0.997,80,0,-0.012,100,100,-1.97,-8.57,0.00,0,55.415800 12.873600,7,2026-05-29 09:36:46,0,0,-1022,0,-429,0,64,37,322,0,0,-1,-1,-1,-1,-1,-1,0,-1,-1,-1,0,36,8,-1024,0,36,0,0,0,0,0,0,0,298,0,0,0,0,0,0,0,0,0,0,0,0,0,0,0,0,0,0,0,0,0,0,0,0,0,0,0,0,0,0,0,0,0,0,0,0,0,0,0,0,0,0,0,0,0,0,0,0,0,0,0,
2026-05-29,09:36:46.350,8.21,100,91,0,-0.147,5.97,25,0.985,80,0,-0.012,100,100,-1.98,-8.57,0.00,0,55.415800 12.873600,7,2026-05-29 09:36:46,0,0,-1021,0,-430,0,65,38,322,0,0,-1,-1,-1,-1,-1,-1,0,-1,-1,-1,0,36,8,-1024,0,36,0,0,0,0,0,0,0,297,0,0,0,0,0,0,0,0,0,0,0,0,0,0,0,0,0,0,0,0,0,0,0,0,0,0,0,0,0,0,0,0,0,0,0,0,0,0,0,0,0,0,0,0,0,0,0,0,0,0,0,
2026-05-29,09:36:46.470,8.21,100,92,0,-0.152,5.96,25,0.998,82,0,-0.012,100,100,-1.98,-8.57,0.00,1,55.415800 12.873600,7,2026-05-29 09:36:46,0,0,-1021,0,-429,0,64,35,321,0,0,-1,-1,-1,-1,-1,-1,0,-1,-1,-1,0,36,8,-1024,0,36,0,0,0,0,0,0,0,298,0,0,0,0,0,0,0,0,0,0,0,0,0,0,0,0,0,0,0,0,0,0,0,0,0,0,0,0,0,0,0,0,0,0,0,0,0,0,0,0,0,0,0,0,0,0,0,0,0,0,0,
2026-05-29,09:36:46.590,8.21,100,93,0,-0.152,5.97,25,0.998,85,0,-0.012,100,100,-1.98,-8.57,0.00,1,55.415800 12.873600,7,2026-05-29 09:36:46,0,0,-1021,0,-430,0,64,37,322,0,0,-1,-1,-1,-1,-1,-1,0,-1,-1,-1,0,36,8,-1024,0,36,0,0,0,0,0,0,0,297,0,0,0,0,0,0,0,0,0,0,0,0,0,0,0,0,0,0,0,0,0,0,0,0,0,0,0,0,0,0,0,0,0,0,0,0,0,0,0,0,0,0,0,0,0,0,0,0,0,0,0,
2026-05-29,09:36:46.710,8.21,100,94,0,-0.147,5.98,25,0.995,87,0,-0.012,100,100,-1.98,-8.57,0.00,1,55.415800 12.873600,7,2026-05-29 09:36:46,0,0,-1021,0,-429,0,63,35,321,0,0,-1,-1,-1,-1,-1,-1,0,-1,-1,-1,0,36,8,-1024,0,36,0,0,0,0,0,0,0,298,0,0,0,0,0,0,0,0,0,0,0,0,0,0,0,0,0,0,0,0,0,0,0,0,0,0,0,0,0,0,0,0,0,0,0,0,0,0,0,0,0,0,0,0,0,0,0,0,0,0,0,
2026-05-29,09:36:46.820,8.21,100,94,0,-0.152,5.98,25,0.998,88,0,-0.012,100,100,-1.97,-8.57,0.00,1,55.415800 12.873600,7,2026-05-29 09:36:46,0,0,-1022,0,-429,0,65,34,322,0,0,-1,-1,-1,-1,-1,-1,0,-1,-1,-1,0,36,8,-1024,0,36,0,0,0,0,0,0,0,298,0,0,0,0,0,0,0,0,0,0,0,0,0,0,0,0,0,0,0,0,0,0,0,0,0,0,0,0,0,0,0,0,0,0,0,0,0,0,0,0,0,0,0,0,0,0,0,0,0,0,0,
2026-05-29,09:36:46.940,8.20,100,94,0,-0.152,5.96,25,0.998,88,0,-0.012,100,100,-1.97,-8.57,0.00,1,55.415800 12.873600,7,2026-05-29 09:36:46,0,0,-1021,0,-429,0,63,32,322,0,0,-1,-1,-1,-1,-1,-1,0,-1,-1,-1,0,36,8,-1024,0,36,0,0,0,0,0,0,0,298,0,0,0,0,0,0,0,0,0,0,0,0,0,0,0,0,0,0,0,0,0,0,0,0,0,0,0,0,0,0,0,0,0,0,0,0,0,0,0,0,0,0,0,0,0,0,0,0,0,0,0,
2026-05-29,09:36:47.060,8.20,100,94,0,-0.152,5.98,25,1.003,89,0,-0.012,100,100,-1.97,-8.57,0.00,0,55.415800 12.873600,7,2026-05-29 09:36:47,0,0,-1021,0,-430,0,64,35,322,0,0,-1,-1,-1,-1,-1,-1,0,-1,-1,-1,0,36,8,-1024,0,36,0,0,0,0,0,0,0,297,0,0,0,0,0,0,0,0,0,0,0,0,0,0,0,0,0,0,0,0,0,0,0,0,0,0,0,0,0,0,0,0,0,0,0,0,0,0,0,0,0,0,0,0,0,0,0,0,0,0,0,
2026-05-29,09:36:47.180,8.20,100,94,0,-0.148,5.99,25,0.991,90,0,-0.012,100,100,-1.97,-8.57,0.00,0,55.415800 12.873600,7,2026-05-29 09:36:47,0,0,-1021,0,-429,0,65,34,322,0,0,-1,-1,-1,-1,-1,-1,0,-1,-1,-1,0,36,8,-1024,0,36,0,0,0,0,0,0,0,298,0,0,0,0,0,0,0,0,0,0,0,0,0,0,0,0,0,0,0,0,0,0,0,0,0,0,0,0,0,0,0,0,0,0,0,0,0,0,0,0,0,0,0,0,0,0,0,0,0,0,0,
2026-05-29,09:36:47.300,8.21,100,91,0,-0.151,5.99,25,0.991,89,0,-0.012,100,100,-1.97,-8.57,0.00,0,55.415800 12.873600,7,2026-05-29 09:36:47,0,0,-1021,0,-430,2,65,37,322,0,0,-1,-1,-1,-1,-1,-1,0,-1,-1,-1,0,36,8,-1024,0,36,0,0,0,0,0,0,0,297,0,0,0,0,0,0,0,0,0,0,0,0,0,0,0,0,0,0,0,0,0,0,0,0,0,0,0,0,0,0,0,0,0,0,0,0,0,0,0,0,0,0,0,0,0,0,0,0,0,0,0,
2026-05-29,09:36:47.420,8.20,100,91,0,-0.151,5.99,25,0.989,87,0,-0.013,100,100,-1.97,-8.57,0.00,0,55.415800 12.873600,7,2026-05-29 09:36:47,0,0,-1021,0,-430,1,63,35,322,0,0,-1,-1,-1,-1,-1,-1,0,-1,-1,-1,0,36,8,-1024,0,36,0,0,0,0,0,0,0,297,0,0,0,0,0,0,0,0,0,0,0,0,0,0,0,0,0,0,0,0,0,0,0,0,0,0,0,0,0,0,0,0,0,0,0,0,0,0,0,0,0,0,0,0,0,0,0,0,0,0,0,
2026-05-29,09:36:47.560,8.20,100,93,0,-0.146,5.98,25,0.989,82,0,-0.013,99,100,-1.97,-8.57,0.00,0,55.415800 12.873600,7,2026-05-29 09:36:47,0,0,-1021,0,-430,0,64,37,321,0,0,-1,-1,-1,-1,-1,-1,0,-1,-1,-1,0,36,8,-1024,0,36,0,0,0,0,0,0,0,297,0,0,0,0,0,0,0,0,0,0,0,0,0,0,0,0,0,0,0,0,0,0,0,0,0,0,0,0,0,0,0,0,0,0,0,0,0,0,0,0,0,0,0,0,0,0,0,0,0,0,0,
2026-05-29,09:36:47.670,8.20,100,92,0,-0.152,5.98,25,0.988,82,0,-0.011,99,100,-1.96,-8.57,0.00,0,55.415800 12.873600,7,2026-05-29 09:36:47,0,0,-1021,0,-430,0,64,36,322,0,0,-1,-1,-1,-1,-1,-1,0,-1,-1,-1,0,36,8,-1024,0,36,0,0,0,0,0,0,0,298,0,0,0,0,0,0,0,0,0,0,0,0,0,0,0,0,0,0,0,0,0,0,0,0,0,0,0,0,0,0,0,0,0,0,0,0,0,0,0,0,0,0,0,0,0,0,0,0,0,0,0,
2026-05-29,09:36:47.790,8.20,100,92,0,-0.152,5.96,25,0.988,81,0,-0.011,99,100,-1.96,-8.57,0.00,0,55.415800 12.873600,7,2026-05-29 09:36:47,0,0,-1021,0,-429,0,64,37,322,0,0,-1,-1,-1,-1,-1,-1,0,-1,-1,-1,0,36,8,-1024,0,36,0,0,0,0,0,0,0,297,0,0,0,0,0,0,0,0,0,0,0,0,0,0,0,0,0,0,0,0,0,0,0,0,0,0,0,0,0,0,0,0,0,0,0,0,0,0,0,0,0,0,0,0,0,0,0,0,0,0,0,
2026-05-29,09:36:47.910,8.21,100,92,0,-0.148,5.97,25,0.999,81,0,-0.013,99,100,-1.96,-8.58,0.00,0,55.415800 12.873600,7,2026-05-29 09:36:47,0,0,-1021,0,-430,0,64,36,322,0,0,-1,-1,-1,-1,-1,-1,0,-1,-1,-1,0,36,8,-1024,0,36,0,0,0,0,0,0,0,297,0,0,0,0,0,0,0,0,0,0,0,0,0,0,0,0,0,0,0,0,0,0,0,0,0,0,0,0,0,0,0,0,0,0,0,0,0,0,0,0,0,0,0,0,0,0,0,0,0,0,0,
2026-05-29,09:36:48.020,8.20,100,92,0,-0.151,5.98,25,0.988,82,0,-0.012,99,100,-1.96,-8.58,0.00,0,55.415800 12.873600,7,2026-05-29 09:36:48,0,0,-1021,0,-429,0,65,36,322,0,0,-1,-1,-1,-1,-1,-1,0,-1,-1,-1,0,36,8,-1024,0,36,0,0,0,0,0,0,0,298,0,0,0,0,0,0,0,0,0,0,0,0,0,0,0,0,0,0,0,0,0,0,0,0,0,0,0,0,0,0,0,0,0,0,0,0,0,0,0,0,0,0,0,0,0,0,0,0,0,0,0,
2026-05-29,09:36:48.150,8.20,100,92,0,-0.149,5.99,25,0.988,85,0,-0.012,99,100,-1.96,-8.58,0.00,0,55.415800 12.873600,7,2026-05-29 09:36:48,0,0,-1021,0,-430,1,64,36,322,0,0,-1,-1,-1,-1,-1,-1,0,-1,-1,-1,0,36,8,-1024,0,36,0,0,0,0,0,0,0,297,0,0,0,0,0,0,0,0,0,0,0,0,0,0,0,0,0,0,0,0,0,0,0,0,0,0,0,0,0,0,0,0,0,0,0,0,0,0,0,0,0,0,0,0,0,0,0,0,0,0,0,
2026-05-29,09:36:48.270,8.21,100,93,0,-0.149,5.99,25,0.993,90,0,-0.012,99,100,-1.96,-8.58,0.00,0,55.415800 12.873600,7,2026-05-29 09:36:48,0,0,-1021,0,-430,0,64,36,322,0,0,-1,-1,-1,-1,-1,-1,0,-1,-1,-1,0,36,8,-1024,0,36,0,0,0,0,0,0,0,297,0,0,0,0,0,0,0,0,0,0,0,0,0,0,0,0,0,0,0,0,0,0,0,0,0,0,0,0,0,0,0,0,0,0,0,0,0,0,0,0,0,0,0,0,0,0,0,0,0,0,0,
2026-05-29,09:36:48.390,8.21,100,94,0,-0.149,5.99,25,0.993,92,0,-0.012,100,100,-1.96,-8.58,0.00,0,55.415800 12.873600,7,2026-05-29 09:36:48,0,0,-1021,0,-430,1,65,36,322,0,0,-1,-1,-1,-1,-1,-1,0,-1,-1,-1,0,36,8,-1024,0,36,0,0,0,0,0,0,0,297,0,0,0,0,0,0,0,0,0,0,0,0,0,0,0,0,0,0,0,0,0,0,0,0,0,0,0,0,0,0,0,0,0,0,0,0,0,0,0,0,0,0,0,0,0,0,0,0,0,0,0,
2026-05-29,09:36:48.510,8.21,100,96,0,-0.151,5.97,25,0.985,94,0,-0.013,100,100,-1.96,-8.58,0.00,0,55.415800 12.873600,7,2026-05-29 09:36:48,0,0,-1021,0,-429,1,64,37,322,0,0,-1,-1,-1,-1,-1,-1,0,-1,-1,-1,0,36,8,-1024,0,36,0,0,0,0,0,0,0,298,0,0,0,0,0,0,0,0,0,0,0,0,0,0,0,0,0,0,0,0,0,0,0,0,0,0,0,0,0,0,0,0,0,0,0,0,0,0,0,0,0,0,0,0,0,0,0,0,0,0,0,
2026-05-29,09:36:48.650,8.21,100,98,0,-0.151,5.97,25,0.985,95,0,-0.013,100,100,-1.96,-8.58,0.00,0,55.415800 12.873600,7,2026-05-29 09:36:48,0,0,-1021,0,-429,0,63,37,322,0,0,-1,-1,-1,-1,-1,-1,0,-1,-1,-1,0,36,8,-1024,0,36,0,0,0,0,0,0,0,298,0,0,0,0,0,0,0,0,0,0,0,0,0,0,0,0,0,0,0,0,0,0,0,0,0,0,0,0,0,0,0,0,0,0,0,0,0,0,0,0,0,0,0,0,0,0,0,0,0,0,0,
2026-05-29,09:36:48.760,8.21,100,98,0,-0.146,5.97,25,0.980,94,0,-0.011,100,100,-1.96,-8.58,0.00,0,55.415800 12.873600,7,2026-05-29 09:36:48,0,0,-1021,0,-430,0,64,36,322,0,0,-1,-1,-1,-1,-1,-1,0,-1,-1,-1,0,36,8,-1024,0,36,0,0,0,0,0,0,0,297,0,0,0,0,0,0,0,0,0,0,0,0,0,0,0,0,0,0,0,0,0,0,0,0,0,0,0,0,0,0,0,0,0,0,0,0,0,0,0,0,0,0,0,0,0,0,0,0,0,0,0,
2026-05-29,09:36:48.880,8.21,100,99,0,-0.151,5.98,25,0.986,92,0,-0.012,100,100,-1.96,-8.58,0.00,0,55.415800 12.873600,7,2026-05-29 09:36:48,0,0,-1021,0,-429,0,64,35,321,0,0,-1,-1,-1,-1,-1,-1,0,-1,-1,-1,0,36,8,-1024,0,36,0,0,0,0,0,0,0,298,0,0,0,0,0,0,0,0,0,0,0,0,0,0,0,0,0,0,0,0,0,0,0,0,0,0,0,0,0,0,0,0,0,0,0,0,0,0,0,0,0,0,0,0,0,0,0,0,0,0,0,
2026-05-29,09:36:49.000,8.21,100,99,0,-0.148,5.99,25,0.986,93,0,-0.012,100,100,-1.96,-8.58,0.00,0,55.415800 12.873600,7,2026-05-29 09:36:48,0,0,-1021,0,-430,0,64,38,322,0,0,-1,-1,-1,-1,-1,-1,0,-1,-1,-1,0,36,8,-1024,0,36,0,0,0,0,0,0,0,298,0,0,0,0,0,0,0,0,0,0,0,0,0,0,0,0,0,0,0,0,0,0,0,0,0,0,0,0,0,0,0,0,0,0,0,0,0,0,0,0,0,0,0,0,0,0,0,0,0,0,0,
2026-05-29,09:36:49.120,8.21,100,99,0,-0.148,5.99,25,0.991,94,0,-0.012,100,100,-1.97,-8.58,0.00,0,55.415800 12.873600,7,2026-05-29 09:36:49,0,0,-1021,0,-430,0,65,35,321,0,0,-1,-1,-1,-1,-1,-1,0,-1,-1,-1,0,36,8,-1024,0,36,0,0,0,0,0,0,0,297,0,0,0,0,0,0,0,0,0,0,0,0,0,0,0,0,0,0,0,0,0,0,0,0,0,0,0,0,0,0,0,0,0,0,0,0,0,0,0,0,0,0,0,0,0,0,0,0,0,0,0,
2026-05-29,09:36:49.240,8.21,100,100,0,-0.153,5.99,25,0.987,96,0,-0.011,100,100,-1.97,-8.58,0.00,0,55.415800 12.873600,7,2026-05-29 09:36:49,0,0,-1021,0,-429,0,65,36,322,0,0,-1,-1,-1,-1,-1,-1,0,-1,-1,-1,0,36,8,-1024,0,36,0,0,0,0,0,0,0,298,0,0,0,0,0,0,0,0,0,0,0,0,0,0,0,0,0,0,0,0,0,0,0,0,0,0,0,0,0,0,0,0,0,0,0,0,0,0,0,0,0,0,0,0,0,0,0,0,0,0,0,
2026-05-29,09:36:49.360,8.21,100,100,0,-0.151,6.00,25,0.993,97,0,-0.014,100,100,-1.98,-8.58,0.00,0,55.415800 12.873600,7,2026-05-29 09:36:49,0,0,-1022,0,-430,1,64,35,322,0,0,-1,-1,-1,-1,-1,-1,0,-1,-1,-1,0,36,8,-1024,0,36,0,0,0,0,0,0,0,297,0,0,0,0,0,0,0,0,0,0,0,0,0,0,0,0,0,0,0,0,0,0,0,0,0,0,0,0,0,0,0,0,0,0,0,0,0,0,0,0,0,0,0,0,0,0,0,0,0,0,0,
2026-05-29,09:36:49.490,8.21,100,100,0,-0.151,6.00,25,0.993,97,0,-0.014,100,100,-1.98,-8.58,0.00,0,55.415800 12.873600,7,2026-05-29 09:36:49,0,0,-1021,0,-429,0,63,36,322,0,0,-1,-1,-1,-1,-1,-1,0,-1,-1,-1,0,36,8,-1024,0,36,0,0,0,0,0,0,0,298,0,0,0,0,0,0,0,0,0,0,0,0,0,0,0,0,0,0,0,0,0,0,0,0,0,0,0,0,0,0,0,0,0,0,0,0,0,0,0,0,0,0,0,0,0,0,0,0,0,0,0,
2026-05-29,09:36:49.610,8.20,100,99,0,-0.150,6.00,25,1.001,95,0,-0.012,100,100,-1.97,-8.58,0.00,0,55.415800 12.873600,7,2026-05-29 09:36:49,0,0,-1021,0,-430,1,63,34,321,0,0,-1,-1,-1,-1,-1,-1,0,-1,-1,-1,0,36,8,-1024,0,36,0,0,0,0,0,0,0,298,0,0,0,0,0,0,0,0,0,0,0,0,0,0,0,0,0,0,0,0,0,0,0,0,0,0,0,0,0,0,0,0,0,0,0,0,0,0,0,0,0,0,0,0,0,0,0,0,0,0,0,
