Date,Time,TxBat(V),VFR 900M(%),RSSI 900M(dB),RX,AccX(g),RxBatt(V),Power 900M(mW),AccZ(g),RSSI 2.4G(dB),RX,AccY(g),VFR 2.4G(%),Rx VFR(%),R.angle(°),P.angle(°),ADC2(V),GPS speed(km/h),GPS,GPS alt(m),GPS clock(),Rudder,Elevator,Throttle,Aileron,Pot1,Pot2,Ext1,Ext2,Pot3,Slider left,Slider right,SA,SB,SC,SD,SE,SF,SG,SH,SI,SJ,LS1,CH1,CH2,CH3,CH4,CH5,CH6,CH7,CH8,CH9,CH10,CH11,CH12,CH13,CH14,CH15,CH16,CH17,CH18,CH19,CH20,CH21,CH22,CH23,CH24,CH25,CH26,CH27,CH28,CH29,CH30,CH31,CH32,CH33,CH34,CH35,CH36,CH37,CH38,CH39,CH40,CH41,CH42,CH43,CH44,CH45,CH46,CH47,CH48,CH49,CH50,CH51,CH52,CH53,CH54,CH55,CH56,CH57,CH58,CH59,CH60,CH61,CH62,CH63,CH64,
2026-05-29,09:07:03.000,8.33,100,100,0,-0.125,5.91,25,1.002,98,0,0.016,100,100,0.55,-7.28,0.00,0,55.415900 12.873600,,2026-05-29 09:07:03,0,0,-1024,190,-430,1,41,-21,322,0,0,-1,-1,-1,-1,-1,-1,-1,-1,-1,-1,0,-33,8,-1024,0,-33,0,0,0,0,0,0,0,297,1024,0,0,0,0,0,0,0,0,0,0,0,0,0,0,0,0,0,0,0,0,0,0,0,0,0,0,0,0,0,0,0,0,0,0,0,0,0,0,0,0,0,0,0,0,0,0,0,0,0,0,
2026-05-29,09:07:03.120,8.33,100,100,0,-0.125,5.93,25,0.992,98,0,0.013,100,100,0.53,-7.28,0.00,0,55.415900 12.873600,,2026-05-29 09:07:03,0,0,-1024,0,-430,0,41,-20,322,0,0,-1,-1,-1,-1,-1,-1,-1,-1,-1,-1,0,36,8,-1024,0,36,0,0,0,0,0,0,0,297,1024,0,0,0,0,0,0,0,0,0,0,0,0,0,0,0,0,0,0,0,0,0,0,0,0,0,0,0,0,0,0,0,0,0,0,0,0,0,0,0,0,0,0,0,0,0,0,0,0,0,0,
2026-05-29,09:07:03.230,8.33,100,100,0,-0.120,5.95,25,0.979,98,0,0.008,100,100,0.50,-7.28,0.00,0,55.415900 12.873600,,2026-05-29 09:07:03,0,0,-1024,0,-430,1,42,-21,322,0,0,-1,-1,-1,-1,-1,-1,-1,-1,-1,-1,0,36,8,-1024,0,36,0,0,0,0,0,0,0,297,1024,0,0,0,0,0,0,0,0,0,0,0,0,0,0,0,0,0,0,0,0,0,0,0,0,0,0,0,0,0,0,0,0,0,0,0,0,0,0,0,0,0,0,0,0,0,0,0,0,0,0,
2026-05-29,09:07:03.350,8.32,100,100,0,-0.125,5.96,25,1.000,98,0,0.011,100,100,0.50,-7.28,0.00,0,55.415900 12.873600,,2026-05-29 09:07:03,0,0,-1024,-447,-430,0,42,-20,322,0,0,-1,-1,-1,-1,-1,-1,-1,-1,-1,-1,0,199,8,-1024,0,199,0,0,0,0,0,0,0,297,1024,0,0,0,0,0,0,0,0,0,0,0,0,0,0,0,0,0,0,0,0,0,0,0,0,0,0,0,0,0,0,0,0,0,0,0,0,0,0,0,0,0,0,0,0,0,0,0,0,0,0,
2026-05-29,09:07:03.470,8.32,100,100,0,-0.125,5.95,25,1.000,98,0,0.011,100,100,0.49,-7.28,0.00,0,55.415900 12.873600,,2026-05-29 09:07:03,0,0,-1024,-1015,-430,0,42,-21,322,0,0,-1,-1,-1,-1,-1,-1,-1,-1,-1,-1,0,523,8,-1024,0,523,0,0,0,0,0,0,0,297,1024,0,0,0,0,0,0,0,0,0,0,0,0,0,0,0,0,0,0,0,0,0,0,0,0,0,0,0,0,0,0,0,0,0,0,0,0,0,0,0,0,0,0,0,0,0,0,0,0,0,0,
2026-05-29,09:07:03.590,8.32,100,100,0,-0.126,5.96,25,1.006,99,0,0.008,100,100,0.45,-7.28,0.00,0,55.415900 12.873600,,2026-05-29 09:07:03,0,-9,-1024,-1024,-430,1,41,-19,322,0,0,-1,-1,-1,-1,-1,-1,-1,-1,-1,-1,0,530,12,-1024,0,530,0,0,0,0,0,0,0,298,1024,0,0,0,0,0,0,0,0,0,0,0,0,0,0,0,0,0,0,0,0,0,0,0,0,0,0,0,0,0,0,0,0,0,0,0,0,0,0,0,0,0,0,0,0,0,0,0,0,0,0,
2026-05-29,09:07:03.700,8.32,100,100,0,-0.125,5.95,25,1.005,99,0,0.009,100,100,0.47,-7.28,0.00,0,55.415900 12.873600,,2026-05-29 09:07:03,0,0,-1024,-921,-430,0,42,-19,322,0,0,-1,-1,-1,-1,-1,-1,-1,-1,-1,-1,0,455,8,-1024,0,455,0,0,0,0,0,0,0,297,1024,0,0,0,0,0,0,0,0,0,0,0,0,0,0,0,0,0,0,0,0,0,0,0,0,0,0,0,0,0,0,0,0,0,0,0,0,0,0,0,0,0,0,0,0,0,0,0,0,0,0,
2026-05-29,09:07:03.820,8.32,100,100,0,-0.125,5.93,25,1.005,99,0,0.009,100,100,0.47,-7.28,0.00,0,55.415900 12.873600,,2026-05-29 09:07:03,0,0,-1024,-496,-429,2,43,-20,322,0,0,-1,-1,-1,-1,-1,-1,-1,-1,-1,-1,0,220,8,-1024,0,220,0,0,0,0,0,0,0,298,1024,0,0,0,0,0,0,0,0,0,0,0,0,0,0,0,0,0,0,0,0,0,0,0,0,0,0,0,0,0,0,0,0,0,0,0,0,0,0,0,0,0,0,0,0,0,0,0,0,0,0,
2026-05-29,09:07:03.930,8.33,100,100,0,-0.124,5.89,25,1.007,99,0,0.009,100,100,0.51,-7.28,0.00,0,55.415900 12.873600,2,2026-05-29 09:07:03,0,0,-1024,-137,-430,1,41,-21,322,0,0,-1,-1,-1,-1,-1,-1,-1,-1,-1,-1,0,82,8,-1024,0,82,0,0,0,0,0,0,0,297,1024,0,0,0,0,0,0,0,0,0,0,0,0,0,0,0,0,0,0,0,0,0,0,0,0,0,0,0,0,0,0,0,0,0,0,0,0,0,0,0,0,0,0,0,0,0,0,0,0,0,0,
2026-05-29,09:07:04.050,8.32,100,100,0,-0.127,5.92,25,0.982,99,0,0.021,100,100,0.55,-7.28,0.00,0,55.415900 12.873600,2,2026-05-29 09:07:04,0,0,-1024,0,-429,1,41,-22,321,0,0,-1,-1,-1,-1,-1,-1,-1,-1,-1,-1,0,36,8,-1024,0,36,0,0,0,0,0,0,0,298,1024,0,0,0,0,0,0,0,0,0,0,0,0,0,0,0,0,0,0,0,0,0,0,0,0,0,0,0,0,0,0,0,0,0,0,0,0,0,0,0,0,0,0,0,0,0,0,0,0,0,0,
2026-05-29,09:07:04.160,8.32,100,100,0,-0.127,5.91,25,0.982,99,0,0.021,100,100,0.55,-7.28,0.00,0,55.415900 12.873600,2,2026-05-29 09:07:04,0,0,-1024,0,-430,0,41,-21,321,0,0,-1,-1,-1,-1,-1,-1,-1,-1,-1,-1,0,36,8,-1024,0,36,0,0,0,0,0,0,0,297,1024,0,0,0,0,0,0,0,0,0,0,0,0,0,0,0,0,0,0,0,0,0,0,0,0,0,0,0,0,0,0,0,0,0,0,0,0,0,0,0,0,0,0,0,0,0,0,0,0,0,0,
2026-05-29,09:07:04.280,8.32,100,100,0,-0.124,5.94,25,0.989,99,0,0.015,100,100,0.59,-7.28,0.00,0,55.415900 12.873600,2,2026-05-29 09:07:04,0,0,-1024,0,-429,0,42,-20,322,0,0,-1,-1,-1,-1,-1,-1,-1,-1,-1,-1,0,36,8,-1024,0,36,0,0,0,0,0,0,0,298,1024,0,0,0,0,0,0,0,0,0,0,0,0,0,0,0,0,0,0,0,0,0,0,0,0,0,0,0,0,0,0,0,0,0,0,0,0,0,0,0,0,0,0,0,0,0,0,0,0,0,0,
2026-05-29,09:07:04.400,8.32,100,100,0,-0.128,5.96,25,0.990,99,0,0.019,100,100,0.57,-7.28,0.00,1,55.415900 12.873600,2,2026-05-29 09:07:04,0,0,-1024,0,-429,0,42,-21,322,0,0,-1,-1,-1,-1,-1,-1,-1,-1,-1,-1,0,36,8,-1024,0,36,0,0,0,0,0,0,0,297,1024,0,0,0,0,0,0,0,0,0,0,0,0,0,0,0,0,0,0,0,0,0,0,0,0,0,0,0,0,0,0,0,0,0,0,0,0,0,0,0,0,0,0,0,0,0,0,0,0,0,0,
2026-05-29,09:07:04.510,8.32,100,100,0,-0.128,5.97,25,0.990,99,0,0.019,100,100,0.57,-7.28,0.00,1,55.415900 12.873600,2,2026-05-29 09:07:04,0,0,-1023,0,-429,0,41,-22,322,0,0,-1,-1,-1,-1,-1,-1,-1,-1,-1,-1,0,36,8,-1024,0,36,0,0,0,0,0,0,0,298,1024,0,0,0,0,0,0,0,0,0,0,0,0,0,0,0,0,0,0,0,0,0,0,0,0,0,0,0,0,0,0,0,0,0,0,0,0,0,0,0,0,0,0,0,0,0,0,0,0,0,0,
2026-05-29,09:07:04.630,8.32,100,100,0,-0.124,5.98,25,0.995,99,0,0.015,100,100,0.55,-7.28,0.00,1,55.415900 12.873600,2,2026-05-29 09:07:04,0,0,-1024,0,-429,0,41,-22,322,0,0,-1,-1,-1,-1,-1,-1,-1,-1,-1,-1,0,36,8,-1024,0,36,0,0,0,0,0,0,0,298,1024,0,0,0,0,0,0,0,0,0,0,0,0,0,0,0,0,0,0,0,0,0,0,0,0,0,0,0,0,0,0,0,0,0,0,0,0,0,0,0,0,0,0,0,0,0,0,0,0,0,0,
2026-05-29,09:07:04.740,8.32,100,100,0,-0.127,5.99,25,1.005,99,0,0.011,100,100,0.55,-7.28,0.00,1,55.415900 12.873600,2,2026-05-29 09:07:04,0,0,-1024,0,-430,0,42,-21,321,0,0,-1,-1,-1,-1,-1,-1,-1,-1,-1,-1,0,36,8,-1024,0,36,0,0,0,0,0,0,0,297,1024,0,0,0,0,0,0,0,0,0,0,0,0,0,0,0,0,0,0,0,0,0,0,0,0,0,0,0,0,0,0,0,0,0,0,0,0,0,0,0,0,0,0,0,0,0,0,0,0,0,0,
2026-05-29,09:07:04.860,8.32,100,100,0,-0.124,5.96,25,1.005,99,0,0.016,100,100,0.55,-7.28,0.00,1,55.415900 12.873600,2,2026-05-29 09:07:04,0,0,-1024,0,-429,0,41,-20,322,0,0,-1,-1,-1,-1,-1,-1,-1,-1,-1,-1,0,36,8,-1024,0,36,0,0,0,0,0,0,0,298,1024,0,0,0,0,0,0,0,0,0,0,0,0,0,0,0,0,0,0,0,0,0,0,0,0,0,0,0,0,0,0,0,0,0,0,0,0,0,0,0,0,0,0,0,0,0,0,0,0,0,0,
2026-05-29,09:07:04.970,8.32,100,100,0,-0.124,5.97,25,0.991,99,0,0.016,100,100,0.53,-7.28,0.00,1,55.415900 12.873600,1,2026-05-29 09:07:05,0,0,-1024,0,-429,0,42,-20,322,0,0,-1,-1,-1,-1,-1,-1,-1,-1,-1,-1,0,36,8,-1024,0,36,0,0,0,0,0,0,0,298,1024,0,0,0,0,0,0,0,0,0,0,0,0,0,0,0,0,0,0,0,0,0,0,0,0,0,0,0,0,0,0,0,0,0,0,0,0,0,0,0,0,0,0,0,0,0,0,0,0,0,0,
2026-05-29,09:07:05.090,8.33,100,100,0,-0.123,5.97,25,0.992,99,0,0.014,100,100,0.52,-7.28,0.00,1,55.415900 12.873600,1,2026-05-29 09:07:05,0,0,-1024,0,-430,0,42,-21,322,0,0,-1,-1,-1,-1,-1,-1,-1,-1,-1,-1,0,36,8,-1024,0,36,0,0,0,0,0,0,0,297,1024,0,0,0,0,0,0,0,0,0,0,0,0,0,0,0,0,0,0,0,0,0,0,0,0,0,0,0,0,0,0,0,0,0,0,0,0,0,0,0,0,0,0,0,0,0,0,0,0,0,0,
2026-05-29,09:07:05.210,8.32,100,100,0,-0.123,5.95,25,0.989,97,0,0.013,100,100,0.51,-7.28,0.00,1,55.415900 12.873600,1,2026-05-29 09:07:05,0,0,-1024,0,-430,1,41,-19,322,0,0,-1,-1,-1,-1,-1,-1,-1,-1,-1,-1,0,36,8,-1024,0,36,0,0,0,0,0,0,0,297,1024,0,0,0,0,0,0,0,0,0,0,0,0,0,0,0,0,0,0,0,0,0,0,0,0,0,0,0,0,0,0,0,0,0,0,0,0,0,0,0,0,0,0,0,0,0,0,0,0,0,0,
2026-05-29,09:07:05.320,8.32,100,100,0,-0.123,5.96,25,0.989,97,0,0.013,100,100,0.51,-7.28,0.00,1,55.415900 12.873600,1,2026-05-29 09:07:05,0,0,-1024,0,-430,0,42,-20,322,0,0,-1,-1,-1,-1,-1,-1,-1,-1,-1,-1,0,36,8,-1024,0,36,0,0,0,0,0,0,0,297,1024,0,0,0,0,0,0,0,0,0,0,0,0,0,0,0,0,0,0,0,0,0,0,0,0,0,0,0,0,0,0,0,0,0,0,0,0,0,0,0,0,0,0,0,0,0,0,0,0,0,0,
2026-05-29,09:07:05.440,8.32,100,100,0,-0.126,5.97,25,1.003,97,0,0.012,100,100,0.55,-7.28,0.00,1,55.415900 12.873600,1,2026-05-29 09:07:05,0,0,-1024,0,-430,0,41,-22,322,0,0,-1,-1,-1,-1,-1,-1,-1,-1,-1,-1,0,36,8,-1024,0,36,0,0,0,0,0,0,0,297,1024,0,0,0,0,0,0,0,0,0,0,0,0,0,0,0,0,0,0,0,0,0,0,0,0,0,0,0,0,0,0,0,0,0,0,0,0,0,0,0,0,0,0,0,0,0,0,0,0,0,0,
2026-05-29,09:07:05.560,8.33,100,100,0,-0.128,5.95,25,1.005,98,0,0.014,100,100,0.54,-7.28,0.00,1,55.415900 12.873600,1,2026-05-29 09:07:05,0,0,-1024,0,-430,0,41,-21,322,0,0,-1,-1,-1,-1,-1,-1,-1,-1,-1,-1,0,36,8,-1024,0,36,0,0,0,0,0,0,0,297,1024,0,0,0,0,0,0,0,0,0,0,0,0,0,0,0,0,0,0,0,0,0,0,0,0,0,0,0,0,0,0,0,0,0,0,0,0,0,0,0,0,0,0,0,0,0,0,0,0,0,0,
2026-05-29,09:07:05.680,8.33,100,100,0,-0.128,5.97,25,1.005,98,0,0.014,100,100,0.54,-7.28,0.00,1,55.415900 12.873600,1,2026-05-29 09:07:05,0,0,-1024,0,-430,1,42,-21,322,0,0,-1,-1,-1,-1,-1,-1,-1,-1,-1,-1,0,36,8,-1024,0,36,0,0,0,0,0,0,0,297,1024,0,0,0,0,0,0,0,0,0,0,0,0,0,0,0,0,0,0,0,0,0,0,0,0,0,0,0,0,0,0,0,0,0,0,0,0,0,0,0,0,0,0,0,0,0,0,0,0,0,0,
2026-05-29,09:07:05.790,8.33,100,100,0,-0.124,5.98,25,0.994,98,0,0.016,100,100,0.54,-7.28,0.00,1,55.415900 12.873600,1,2026-05-29 09:07:05,0,0,-1024,0,-429,0,42,-19,322,0,0,-1,-1,-1,-1,-1,-1,-1,-1,-1,-1,0,36,8,-1024,0,36,0,0,0,0,0,0,0,298,1024,0,0,0,0,0,0,0,0,0,0,0,0,0,0,0,0,0,0,0,0,0,0,0,0,0,0,0,0,0,0,0,0,0,0,0,0,0,0,0,0,0,0,0,0,0,0,0,0,0,0,
2026-05-29,09:07:05.910,8.33,100,100,0,-0.122,5.96,25,0.992,99,0,0.014,100,100,0.54,-7.28,0.00,1,55.415900 12.873600,1,2026-05-29 09:07:05,0,0,-1024,0,-429,0,41,-21,322,0,0,-1,-1,-1,-1,-1,-1,-1,-1,-1,-1,0,36,8,-1024,0,36,0,0,0,0,0,0,0,298,1024,0,0,0,0,0,0,0,0,0,0,0,0,0,0,0,0,0,0,0,0,0,0,0,0,0,0,0,0,0,0,0,0,0,0,0,0,0,0,0,0,0,0,0,0,0,0,0,0,0,0,
2026-05-29,09:07:06.020,8.33,100,100,0,-0.122,5.95,25,0.992,99,0,0.014,100,100,0.54,-7.28,0.00,1,55.415900 12.873600,0,2026-05-29 09:07:06,0,0,-1023,0,-430,0,41,-20,322,0,0,-1,-1,-1,-1,-1,-1,-1,-1,-1,-1,0,36,8,-1024,0,36,0,0,0,0,0,0,0,297,1024,0,0,0,0,0,0,0,0,0,0,0,0,0,0,0,0,0,0,0,0,0,0,0,0,0,0,0,0,0,0,0,0,0,0,0,0,0,0,0,0,0,0,0,0,0,0,0,0,0,0,
2026-05-29,09:07:06.130,8.32,100,100,0,-0.124,5.96,25,0.990,99,0,0.016,100,100,0.52,-7.28,0.00,1,55.415900 12.873600,0,2026-05-29 09:07:06,0,0,-1024,0,-430,2,42,-20,322,0,0,-1,-1,-1,-1,-1,-1,-1,-1,-1,-1,0,36,8,-1024,0,36,0,0,0,0,0,0,0,297,1024,0,0,0,0,0,0,0,0,0,0,0,0,0,0,0,0,0,0,0,0,0,0,0,0,0,0,0,0,0,0,0,0,0,0,0,0,0,0,0,0,0,0,0,0,0,0,0,0,0,0,
2026-05-29,09:07:06.250,8.33,100,100,0,-0.122,5.97,25,0.996,99,0,0.015,100,100,0.52,-7.28,0.00,1,55.415900 12.873600,0,2026-05-29 09:07:06,0,0,-1024,0,-430,0,42,-21,322,0,0,-1,-1,-1,-1,-1,-1,-1,-1,-1,-1,0,36,8,-1024,0,36,0,0,0,0,0,0,0,297,1024,0,0,0,0,0,0,0,0,0,0,0,0,0,0,0,0,0,0,0,0,0,0,0,0,0,0,0,0,0,0,0,0,0,0,0,0,0,0,0,0,0,0,0,0,0,0,0,0,0,0,
2026-05-29,09:07:06.370,8.32,100,100,0,-0.122,5.98,25,0.996,100,0,0.015,100,100,0.52,-7.28,0.00,1,55.415900 12.873600,0,2026-05-29 09:07:06,0,0,-1024,0,-429,1,41,-21,322,0,0,-1,-1,-1,-1,-1,-1,-1,-1,-1,-1,0,36,8,-1024,0,36,0,0,0,0,0,0,0,298,1024,0,0,0,0,0,0,0,0,0,0,0,0,0,0,0,0,0,0,0,0,0,0,0,0,0,0,0,0,0,0,0,0,0,0,0,0,0,0,0,0,0,0,0,0,0,0,0,0,0,0,
2026-05-29,09:07:06.490,8.32,100,100,0,-0.124,5.99,25,0.988,100,0,0.015,100,100,0.53,-7.28,0.00,0,55.415900 12.873600,0,2026-05-29 09:07:06,0,0,-1024,0,-429,0,43,-21,321,0,0,-1,-1,-1,-1,-1,-1,-1,-1,-1,-1,0,36,8,-1024,0,36,0,0,0,0,0,0,0,298,1024,0,0,0,0,0,0,0,0,0,0,0,0,0,0,0,0,0,0,0,0,0,0,0,0,0,0,0,0,0,0,0,0,0,0,0,0,0,0,0,0,0,0,0,0,0,0,0,0,0,0,
2026-05-29,09:07:06.600,8.32,100,100,0,-0.124,5.99,25,1.003,100,0,0.015,100,100,0.53,-7.28,0.00,0,55.415900 12.873600,0,2026-05-29 09:07:06,0,0,-1024,0,-429,0,41,-22,322,0,0,-1,-1,-1,-1,-1,-1,-1,-1,-1,-1,0,36,8,-1024,0,36,0,0,0,0,0,0,0,298,1024,0,0,0,0,0,0,0,0,0,0,0,0,0,0,0,0,0,0,0,0,0,0,0,0,0,0,0,0,0,0,0,0,0,0,0,0,0,0,0,0,0,0,0,0,0,0,0,0,0,0,
2026-05-29,09:07:06.720,8.32,100,100,0,-0.125,5.99,25,1.003,100,0,0.016,100,100,0.53,-7.28,0.00,0,55.415900 12.873600,0,2026-05-29 09:07:06,0,0,-1024,0,-430,1,42,-20,322,0,0,-1,-1,-1,-1,-1,-1,-1,-1,-1,-1,0,36,8,-1024,0,36,0,0,0,0,0,0,0,297,1024,0,0,0,0,0,0,0,0,0,0,0,0,0,0,0,0,0,0,0,0,0,0,0,0,0,0,0,0,0,0,0,0,0,0,0,0,0,0,0,0,0,0,0,0,0,0,0,0,0,0,
2026-05-29,09:07:06.830,8.32,100,100,0,-0.125,5.99,25,0.998,100,0,0.016,100,100,0.52,-7.29,0.00,0,55.415900 12.873600,0,2026-05-29 09:07:06,0,0,-1024,0,-429,0,42,-21,321,0,0,-1,-1,-1,-1,-1,-1,-1,-1,-1,-1,0,36,8,-1024,0,36,0,0,0,0,0,0,0,298,1024,0,0,0,0,0,0,0,0,0,0,0,0,0,0,0,0,0,0,0,0,0,0,0,0,0,0,0,0,0,0,0,0,0,0,0,0,0,0,0,0,0,0,0,0,0,0,0,0,0,0,
2026-05-29,09:07:06.940,8.32,100,100,0,-0.122,6.00,25,0.994,100,0,0.015,100,100,0.54,-7.29,0.00,1,55.415900 12.873600,1,2026-05-29 09:07:06,0,0,-1024,0,-430,0,42,-20,322,0,0,-1,-1,-1,-1,-1,-1,-1,-1,-1,-1,0,36,8,-1024,0,36,0,0,0,0,0,0,0,297,1024,0,0,0,0,0,0,0,0,0,0,0,0,0,0,0,0,0,0,0,0,0,0,0,0,0,0,0,0,0,0,0,0,0,0,0,0,0,0,0,0,0,0,0,0,0,0,0,0,0,0,
2026-05-29,09:07:07.060,8.32,100,100,0,-0.124,5.98,25,0.995,100,0,0.014,100,100,0.54,-7.29,0.00,1,55.415900 12.873600,1,2026-05-29 09:07:07,0,0,-1024,0,-430,0,42,-20,322,0,0,-1,-1,-1,-1,-1,-1,-1,-1,-1,-1,0,36,8,-1024,0,36,0,0,0,0,0,0,0,297,1024,0,0,0,0,0,0,0,0,0,0,0,0,0,0,0,0,0,0,0,0,0,0,0,0,0,0,0,0,0,0,0,0,0,0,0,0,0,0,0,0,0,0,0,0,0,0,0,0,0,0,
2026-05-29,09:07:07.170,8.32,100,100,0,-0.124,5.96,25,0.995,100,0,0.014,100,100,0.53,-7.29,0.00,1,55.415900 12.873600,1,2026-05-29 09:07:07,0,0,-1024,0,-430,1,42,-21,322,0,0,-1,-1,-1,-1,-1,-1,-1,-1,-1,-1,0,36,8,-1024,0,36,0,0,0,0,0,0,0,297,1024,0,0,0,0,0,0,0,0,0,0,0,0,0,0,0,0,0,0,0,0,0,0,0,0,0,0,0,0,0,0,0,0,0,0,0,0,0,0,0,0,0,0,0,0,0,0,0,0,0,0,
2026-05-29,09:07:07.290,8.32,100,100,0,-0.123,5.97,25,1.008,100,0,0.014,100,100,0.53,-7.29,0.00,1,55.415900 12.873600,1,2026-05-29 09:07:07,0,0,-1024,0,-429,0,41,-20,322,0,0,-1,-1,-1,-1,-1,-1,-1,-1,-1,-1,0,36,8,-1024,0,36,0,0,0,0,0,0,0,298,1024,0,0,0,0,0,0,0,0,0,0,0,0,0,0,0,0,0,0,0,0,0,0,0,0,0,0,0,0,0,0,0,0,0,0,0,0,0,0,0,0,0,0,0,0,0,0,0,0,0,0,
2026-05-29,09:07:07.410,8.32,100,100,0,-0.123,5.98,25,0.989,100,0,0.017,100,100,0.53,-7.29,0.00,0,55.415900 12.873600,1,2026-05-29 09:07:07,0,0,-1024,0,-430,0,41,-21,322,0,0,-1,-1,-1,-1,-1,-1,-1,-1,-1,-1,0,36,8,-1024,0,36,0,0,0,0,0,0,0,297,1024,0,0,0,0,0,0,0,0,0,0,0,0,0,0,0,0,0,0,0,0,0,0,0,0,0,0,0,0,0,0,0,0,0,0,0,0,0,0,0,0,0,0,0,0,0,0,0,0,0,0,
2026-05-29,09:07:07.530,8.32,100,100,0,-0.123,5.98,25,0.989,100,0,0.017,100,100,0.53,-7.29,0.00,0,55.415900 12.873600,1,2026-05-29 09:07:07,0,0,-1024,0,-430,0,42,-21,322,0,0,-1,-1,-1,-1,-1,-1,-1,-1,-1,-1,0,36,8,-1024,0,36,0,0,0,0,0,0,0,297,1024,0,0,0,0,0,0,0,0,0,0,0,0,0,0,0,0,0,0,0,0,0,0,0,0,0,0,0,0,0,0,0,0,0,0,0,0,0,0,0,0,0,0,0,0,0,0,0,0,0,0,
2026-05-29,09:07:07.640,8.32,100,100,0,-0.124,5.99,25,1.006,100,0,0.011,100,100,0.52,-7.29,0.00,0,55.415900 12.873600,1,2026-05-29 09:07:07,0,0,-1024,0,-430,0,42,-21,322,0,0,-1,-1,-1,-1,-1,-1,-1,-1,-1,-1,0,36,8,-1024,0,36,0,0,0,0,0,0,0,297,1024,0,0,0,0,0,0,0,0,0,0,0,0,0,0,0,0,0,0,0,0,0,0,0,0,0,0,0,0,0,0,0,0,0,0,0,0,0,0,0,0,0,0,0,0,0,0,0,0,0,0,
2026-05-29,09:07:07.760,8.32,100,100,0,-0.125,5.97,25,1.002,100,0,0.013,100,100,0.54,-7.29,0.00,0,55.415900 12.873600,1,2026-05-29 09:07:07,0,0,-1024,0,-430,0,42,-20,322,0,0,-1,-1,-1,-1,-1,-1,-1,-1,-1,-1,0,36,8,-1024,0,36,0,0,0,0,0,0,0,297,1024,0,0,0,0,0,0,0,0,0,0,0,0,0,0,0,0,0,0,0,0,0,0,0,0,0,0,0,0,0,0,0,0,0,0,0,0,0,0,0,0,0,0,0,0,0,0,0,0,0,0,
2026-05-29,09:07:07.870,8.32,100,100,0,-0.125,5.98,25,1.002,100,0,0.013,100,100,0.54,-7.29,0.00,0,55.415900 12.873600,1,2026-05-29 09:07:07,0,0,-1024,0,-429,1,41,-20,322,0,0,-1,-1,-1,-1,-1,-1,-1,-1,-1,-1,0,36,8,-1024,0,36,0,0,0,0,0,0,0,298,1024,0,0,0,0,0,0,0,0,0,0,0,0,0,0,0,0,0,0,0,0,0,0,0,0,0,0,0,0,0,0,0,0,0,0,0,0,0,0,0,0,0,0,0,0,0,0,0,0,0,0,
2026-05-29,09:07:07.980,8.32,100,100,0,-0.123,5.99,25,0.989,100,0,0.016,100,100,0.55,-7.29,0.00,0,55.415900 12.873600,1,2026-05-29 09:07:08,0,0,-1024,0,-430,0,42,-22,322,0,0,-1,-1,-1,-1,-1,-1,-1,-1,-1,-1,0,36,8,-1024,0,36,0,0,0,0,0,0,0,297,1024,0,0,0,0,0,0,0,0,0,0,0,0,0,0,0,0,0,0,0,0,0,0,0,0,0,0,0,0,0,0,0,0,0,0,0,0,0,0,0,0,0,0,0,0,0,0,0,0,0,0,
2026-05-29,09:07:08.090,8.32,100,100,0,-0.123,5.96,25,0.994,100,0,0.015,100,100,0.55,-7.29,0.00,0,55.415900 12.873600,1,2026-05-29 09:07:08,0,0,-1024,0,-429,0,42,-19,322,0,0,-1,-1,-1,-1,-1,-1,-1,-1,-1,-1,0,36,8,-1024,0,36,0,0,0,0,0,0,0,298,1024,0,0,0,0,0,0,0,0,0,0,0,0,0,0,0,0,0,0,0,0,0,0,0,0,0,0,0,0,0,0,0,0,0,0,0,0,0,0,0,0,0,0,0,0,0,0,0,0,0,0,
2026-05-29,09:07:08.200,8.32,100,100,0,-0.123,5.95,25,0.994,100,0,0.015,100,100,0.53,-7.29,0.00,0,55.415900 12.873600,1,2026-05-29 09:07:08,0,0,-1024,0,-430,0,42,-20,322,0,0,-1,-1,-1,-1,-1,-1,-1,-1,-1,-1,0,36,8,-1024,0,36,0,0,0,0,0,0,0,297,1024,0,0,0,0,0,0,0,0,0,0,0,0,0,0,0,0,0,0,0,0,0,0,0,0,0,0,0,0,0,0,0,0,0,0,0,0,0,0,0,0,0,0,0,0,0,0,0,0,0,0,
2026-05-29,09:07:08.320,8.32,100,100,0,-0.125,5.96,25,0.996,100,0,0.014,100,100,0.53,-7.29,0.00,0,55.415900 12.873600,1,2026-05-29 09:07:08,0,0,-1024,0,-429,0,42,-21,322,0,0,-1,-1,-1,-1,-1,-1,-1,-1,-1,-1,0,36,8,-1024,0,36,0,0,0,0,0,0,0,298,1024,0,0,0,0,0,0,0,0,0,0,0,0,0,0,0,0,0,0,0,0,0,0,0,0,0,0,0,0,0,0,0,0,0,0,0,0,0,0,0,0,0,0,0,0,0,0,0,0,0,0,
2026-05-29,09:07:08.440,8.32,100,100,0,-0.124,5.98,25,0.992,99,0,0.016,100,100,0.52,-7.28,0.00,0,55.415900 12.873600,1,2026-05-29 09:07:08,0,0,-1024,0,-430,0,42,-20,322,0,0,-1,-1,-1,-1,-1,-1,-1,-1,-1,-1,0,36,8,-1024,0,36,0,0,0,0,0,0,0,297,1024,0,0,0,0,0,0,0,0,0,0,0,0,0,0,0,0,0,0,0,0,0,0,0,0,0,0,0,0,0,0,0,0,0,0,0,0,0,0,0,0,0,0,0,0,0,0,0,0,0,0,
2026-05-29,09:07:08.580,8.32,100,100,0,-0.125,5.98,25,0.992,96,0,0.015,100,100,0.52,-7.28,0.00,0,55.415900 12.873600,1,2026-05-29 09:07:08,0,0,-1024,0,-429,1,41,-21,322,0,0,-1,-1,-1,-1,-1,-1,-1,-1,-1,-1,0,36,8,-1024,0,36,0,0,0,0,0,0,0,298,1024,0,0,0,0,0,0,0,0,0,0,0,0,0,0,0,0,0,0,0,0,0,0,0,0,0,0,0,0,0,0,0,0,0,0,0,0,0,0,0,0,0,0,0,0,0,0,0,0,0,0,
2026-05-29,09:07:08.700,8.32,100,100,0,-0.125,5.99,25,0.998,93,0,0.015,100,100,0.52,-7.29,0.00,0,55.415900 12.873600,1,2026-05-29 09:07:08,0,0,-646,0,-430,1,42,-20,322,0,0,-1,-1,-1,-1,-1,-1,-1,-1,-1,-1,1,36,8,-1024,0,36,0,0,0,0,0,0,0,297,1024,0,0,0,0,0,0,0,0,0,0,0,0,0,0,0,0,0,0,0,0,0,0,0,0,0,0,0,0,0,0,0,0,0,0,0,0,0,0,0,0,0,0,0,0,0,0,0,0,0,0,
2026-05-29,09:07:08.820,8.32,100,100,0,-0.126,5.99,25,0.997,92,0,0.014,100,100,0.52,-7.29,0.00,0,55.415900 12.873600,1,2026-05-29 09:07:08,0,0,-439,0,-430,0,42,-21,322,0,0,-1,-1,-1,-1,-1,-1,-1,-1,-1,-1,1,36,8,-1024,0,36,0,0,0,0,0,0,0,297,1024,0,0,0,0,0,0,0,0,0,0,0,0,0,0,0,0,0,0,0,0,0,0,0,0,0,0,0,0,0,0,0,0,0,0,0,0,0,0,0,0,0,0,0,0,0,0,0,0,0,0,
2026-05-29,09:07:08.950,8.32,100,100,0,-0.123,5.97,25,0.994,93,0,0.015,100,100,0.54,-7.29,0.00,0,55.415900 12.873600,-2,2026-05-29 09:07:08,0,0,-1023,0,-430,0,42,-21,322,0,0,-1,-1,-1,-1,-1,-1,-1,-1,-1,-1,0,36,8,-1024,0,36,0,0,0,0,0,0,0,297,1024,0,0,0,0,0,0,0,0,0,0,0,0,0,0,0,0,0,0,0,0,0,0,0,0,0,0,0,0,0,0,0,0,0,0,0,0,0,0,0,0,0,0,0,0,0,0,0,0,0,0,
2026-05-29,09:07:09.060,8.32,100,100,0,-0.123,5.98,25,0.994,93,0,0.015,100,100,0.54,-7.29,0.00,0,55.415900 12.873600,-2,2026-05-29 09:07:09,0,0,-1024,0,-429,0,41,-22,321,0,0,-1,-1,-1,-1,-1,-1,-1,-1,-1,-1,0,36,8,-1024,0,36,0,0,0,0,0,0,0,298,1024,0,0,0,0,0,0,0,0,0,0,0,0,0,0,0,0,0,0,0,0,0,0,0,0,0,0,0,0,0,0,0,0,0,0,0,0,0,0,0,0,0,0,0,0,0,0,0,0,0,0,
2026-05-29,09:07:09.180,8.32,100,100,0,-0.126,5.98,25,1.008,94,0,0.015,100,100,0.57,-7.29,0.00,0,55.415900 12.873600,-2,2026-05-29 09:07:09,0,0,-1024,0,-429,1,40,-20,321,0,0,-1,-1,-1,-1,-1,-1,-1,-1,-1,-1,0,36,8,-1024,0,36,0,0,0,0,0,0,0,298,1024,0,0,0,0,0,0,0,0,0,0,0,0,0,0,0,0,0,0,0,0,0,0,0,0,0,0,0,0,0,0,0,0,0,0,0,0,0,0,0,0,0,0,0,0,0,0,0,0,0,0,
2026-05-29,09:07:09.290,8.32,100,100,0,-0.125,5.99,25,0.993,94,0,0.019,100,100,0.56,-7.29,0.00,0,55.415900 12.873600,-2,2026-05-29 09:07:09,0,0,-1024,0,-429,0,42,-21,322,0,0,-1,-1,-1,-1,-1,-1,-1,-1,-1,-1,0,36,8,-1024,0,36,0,0,0,0,0,0,0,298,1024,0,0,0,0,0,0,0,0,0,0,0,0,0,0,0,0,0,0,0,0,0,0,0,0,0,0,0,0,0,0,0,0,0,0,0,0,0,0,0,0,0,0,0,0,0,0,0,0,0,0,
2026-05-29,09:07:09.410,8.32,100,100,0,-0.125,5.99,25,0.993,93,0,0.019,100,100,0.56,-7.29,0.00,1,55.415900 12.873600,-2,2026-05-29 09:07:09,0,0,-1024,0,-430,0,42,-22,322,0,0,-1,-1,-1,-1,-1,1,-1,-1,-1,-1,0,36,8,-1024,0,36,0,0,0,0,0,0,0,297,1024,0,0,0,0,0,0,0,0,0,0,0,0,0,0,0,0,0,0,0,0,0,0,0,0,0,0,0,0,0,0,0,0,0,0,0,0,0,0,0,0,0,0,0,0,0,0,0,0,0,0,
2026-05-29,09:07:09.530,8.32,100,100,0,-0.124,6.00,25,0.990,94,0,0.015,100,100,0.55,-7.29,0.00,1,55.415900 12.873600,-2,2026-05-29 09:07:09,0,0,-1024,0,-430,0,42,-22,322,0,0,-1,-1,-1,-1,-1,1,-1,-1,-1,-1,0,36,8,-1024,0,36,0,0,0,0,0,0,0,297,1024,0,0,0,0,0,0,0,0,0,0,0,0,0,0,0,0,0,0,0,0,0,0,0,0,0,0,0,0,0,0,0,0,0,0,0,0,0,0,0,0,0,0,0,0,0,0,0,0,0,0,
2026-05-29,09:07:09.640,8.32,100,100,0,-0.126,6.00,25,0.996,93,0,0.017,100,100,0.55,-7.28,0.00,1,55.415900 12.873600,-2,2026-05-29 09:07:09,0,0,-1024,0,-430,0,42,-19,322,0,0,-1,-1,-1,-1,-1,1,-1,-1,-1,-1,0,36,8,-1024,0,36,0,0,0,0,0,0,0,297,1024,0,0,0,0,0,0,0,0,0,0,0,0,0,0,0,0,0,0,0,0,0,0,0,0,0,0,0,0,0,0,0,0,0,0,0,0,0,0,0,0,0,0,0,0,0,0,0,0,0,0,
2026-05-29,09:07:09.760,8.32,100,100,0,-0.125,6.00,25,0.996,92,0,0.016,100,100,0.55,-7.28,0.00,1,55.415900 12.873600,-2,2026-05-29 09:07:09,0,0,-1024,0,-430,0,42,-21,322,0,0,-1,-1,-1,-1,-1,1,-1,-1,-1,-1,0,36,8,-1024,0,36,0,0,0,0,0,0,0,297,1024,0,0,0,0,0,0,0,0,0,0,0,0,0,0,0,0,0,0,0,0,0,0,0,0,0,0,0,0,0,0,0,0,0,0,0,0,0,0,0,0,0,0,0,0,0,0,0,0,0,0,
2026-05-29,09:07:09.880,8.32,100,100,0,-0.125,6.00,25,0.994,92,0,0.016,100,100,0.54,-7.28,0.00,1,55.415900 12.873600,-2,2026-05-29 09:07:09,0,0,-1023,0,-430,0,41,-21,322,0,0,-1,-1,-1,-1,-1,1,-1,-1,-1,-1,0,36,8,-1023,0,36,0,0,0,0,0,0,0,297,1024,0,0,0,0,0,0,0,0,0,0,0,0,0,0,0,0,0,0,0,0,0,0,0,0,0,0,0,0,0,0,0,0,0,0,0,0,0,0,0,0,0,0,0,0,0,0,0,0,0,0,
2026-05-29,09:07:10.010,8.32,100,100,0,-0.125,5.97,25,0.994,91,0,0.016,100,100,0.54,-7.28,0.00,0,55.415900 12.873600,1,2026-05-29 09:07:10,0,0,-1024,0,-430,0,42,-20,322,0,0,-1,-1,-1,-1,-1,1,-1,-1,-1,-1,0,36,8,-1024,0,36,0,0,0,0,0,0,0,298,1024,0,0,0,0,0,0,0,0,0,0,0,0,0,0,0,0,0,0,0,0,0,0,0,0,0,0,0,0,0,0,0,0,0,0,0,0,0,0,0,0,0,0,0,0,0,0,0,0,0,0,
2026-05-29,09:07:10.130,8.32,100,100,0,-0.121,5.98,25,1.001,91,0,0.009,100,100,0.53,-7.28,0.00,0,55.415900 12.873600,1,2026-05-29 09:07:10,0,0,-1024,0,-429,0,42,-21,322,0,0,-1,-1,-1,-1,-1,1,-1,-1,-1,-1,0,36,8,-1024,0,36,0,0,0,0,0,0,0,298,1024,0,0,0,0,0,0,0,0,0,0,0,0,0,0,0,0,0,0,0,0,0,0,0,0,0,0,0,0,0,0,0,0,0,0,0,0,0,0,0,0,0,0,0,0,0,0,0,0,0,0,
2026-05-29,09:07:10.250,8.32,100,100,0,-0.121,5.96,25,1.001,90,0,0.009,100,100,0.53,-7.28,0.00,0,55.415900 12.873600,1,2026-05-29 09:07:10,0,0,-1024,0,-430,0,42,-20,322,0,0,-1,-1,-1,-1,-1,1,-1,-1,-1,-1,0,36,8,-1024,0,36,0,0,0,0,0,0,0,298,1024,0,0,0,0,0,0,0,0,0,0,0,0,0,0,0,0,0,0,0,0,0,0,0,0,0,0,0,0,0,0,0,0,0,0,0,0,0,0,0,0,0,0,0,0,0,0,0,0,0,0,
2026-05-29,09:07:10.360,8.32,100,100,0,-0.124,5.94,25,0.994,90,0,0.015,100,100,0.54,-7.28,0.00,0,55.415900 12.873600,1,2026-05-29 09:07:10,0,-379,-1024,0,-430,0,42,-22,322,0,0,-1,-1,-1,-1,-1,1,-1,-1,-1,-1,0,36,148,-1024,0,36,0,0,0,0,0,0,0,298,1024,0,0,0,0,0,0,0,0,0,0,0,0,0,0,0,0,0,0,0,0,0,0,0,0,0,0,0,0,0,0,0,0,0,0,0,0,0,0,0,0,0,0,0,0,0,0,0,0,0,0,
2026-05-29,09:07:10.480,8.32,100,100,0,-0.121,5.93,25,1.000,90,0,0.009,100,100,0.54,-7.28,0.00,1,55.415900 12.873600,1,2026-05-29 09:07:10,0,-1022,-1024,-30,-430,0,41,-24,322,0,0,-1,-1,-1,-1,-1,1,-1,-1,-1,-1,0,47,515,-1024,0,47,0,0,0,0,0,0,0,297,1024,0,0,0,0,0,0,0,0,0,0,0,0,0,0,0,0,0,0,0,0,0,0,0,0,0,0,0,0,0,0,0,0,0,0,0,0,0,0,0,0,0,0,0,0,0,0,0,0,0,0,
2026-05-29,09:07:10.600,8.32,100,100,0,-0.126,5.94,25,1.000,90,0,0.009,100,100,0.54,-7.28,0.00,1,55.415900 12.873600,1,2026-05-29 09:07:10,0,-1023,-1024,0,-430,0,41,-21,322,0,0,-1,-1,-1,-1,-1,1,-1,-1,-1,-1,0,36,516,-1024,0,36,0,0,0,0,0,0,0,297,1024,0,0,0,0,0,0,0,0,0,0,0,0,0,0,0,0,0,0,0,0,0,0,0,0,0,0,0,0,0,0,0,0,0,0,0,0,0,0,0,0,0,0,0,0,0,0,0,0,0,0,
2026-05-29,09:07:10.710,8.32,100,100,0,-0.126,5.93,25,0.990,90,0,0.005,100,100,0.55,-7.29,0.00,1,55.415900 12.873600,1,2026-05-29 09:07:10,0,-1023,-1021,-68,-430,0,42,-24,321,0,0,-1,-1,-1,-1,-1,1,-1,-1,-1,-1,0,60,516,-1020,0,60,0,0,0,0,0,0,0,297,1024,0,0,0,0,0,0,0,0,0,0,0,0,0,0,0,0,0,0,0,0,0,0,0,0,0,0,0,0,0,0,0,0,0,0,0,0,0,0,0,0,0,0,0,0,0,0,0,0,0,0,
2026-05-29,09:07:10.830,8.32,100,100,0,-0.129,5.95,25,0.998,90,0,0.014,100,100,0.59,-7.29,0.00,1,55.415900 12.873600,1,2026-05-29 09:07:10,0,-1023,-790,-58,-430,0,40,-20,322,0,0,-1,-1,-1,-1,-1,1,-1,-1,-1,-1,1,56,516,-790,0,56,0,0,0,0,0,0,0,297,1024,0,0,0,0,0,0,0,0,0,0,0,0,0,0,0,0,0,0,0,0,0,0,0,0,0,0,0,0,0,0,0,0,0,0,0,0,0,0,0,0,0,0,0,0,0,0,0,0,0,0,
2026-05-29,09:07:10.970,8.32,100,100,0,-0.126,5.96,25,0.995,90,0,0.017,100,100,0.56,-7.29,0.00,1,55.415900 12.873600,-1,2026-05-29 09:07:10,0,-1023,-696,-67,-429,0,43,-21,322,0,0,-1,-1,-1,-1,-1,1,-1,-1,-1,-1,1,59,516,-696,0,59,0,0,0,0,0,0,0,298,1024,0,0,0,0,0,0,0,0,0,0,0,0,0,0,0,0,0,0,0,0,0,0,0,0,0,0,0,0,0,0,0,0,0,0,0,0,0,0,0,0,0,0,0,0,0,0,0,0,0,0,
2026-05-29,09:07:11.090,8.32,100,100,0,-0.126,5.97,25,0.995,89,0,0.017,100,100,0.56,-7.29,0.00,0,55.415900 12.873600,-1,2026-05-29 09:07:11,0,-1023,-629,-67,-430,0,42,-20,322,0,0,-1,-1,-1,-1,-1,1,-1,-1,-1,-1,1,59,516,-604,0,59,0,0,0,0,0,0,0,297,1024,0,0,0,0,0,0,0,0,0,0,0,0,0,0,0,0,0,0,0,0,0,0,0,0,0,0,0,0,0,0,0,0,0,0,0,0,0,0,0,0,0,0,0,0,0,0,0,0,0,0,
2026-05-29,09:07:11.210,8.32,100,100,0,-0.130,5.99,25,0.994,89,0,0.021,100,100,0.54,-7.29,0.00,0,55.415900 12.873600,-1,2026-05-29 09:07:11,0,-1024,-600,-66,-430,0,42,-20,322,0,0,-1,-1,-1,-1,-1,1,-1,-1,-1,-1,1,59,516,-600,0,59,0,0,0,0,0,0,0,297,1024,0,0,0,0,0,0,0,0,0,0,0,0,0,0,0,0,0,0,0,0,0,0,0,0,0,0,0,0,0,0,0,0,0,0,0,0,0,0,0,0,0,0,0,0,0,0,0,0,0,0,
2026-05-29,09:07:11.320,8.32,100,100,0,-0.127,5.99,25,0.994,89,0,0.014,100,100,0.53,-7.29,0.00,0,55.415900 12.873600,-1,2026-05-29 09:07:11,0,-1023,-602,-64,-429,0,41,-21,322,0,0,-1,-1,-1,-1,-1,1,-1,-1,-1,-1,1,58,516,-602,0,58,0,0,0,0,0,0,0,298,1024,0,0,0,0,0,0,0,0,0,0,0,0,0,0,0,0,0,0,0,0,0,0,0,0,0,0,0,0,0,0,0,0,0,0,0,0,0,0,0,0,0,0,0,0,0,0,0,0,0,0,
2026-05-29,09:07:11.440,8.32,100,100,0,-0.127,5.99,25,0.994,89,0,0.014,100,100,0.53,-7.29,0.00,0,55.415900 12.873600,-1,2026-05-29 09:07:11,0,-1023,-601,-60,-429,0,42,-18,322,0,0,-1,-1,-1,-1,-1,1,-1,-1,-1,-1,1,56,516,-601,0,56,0,0,0,0,0,0,0,298,1024,0,0,0,0,0,0,0,0,0,0,0,0,0,0,0,0,0,0,0,0,0,0,0,0,0,0,0,0,0,0,0,0,0,0,0,0,0,0,0,0,0,0,0,0,0,0,0,0,0,0,
2026-05-29,09:07:11.560,8.32,100,100,0,-0.132,5.97,25,0.975,89,0,0.025,100,100,0.54,-7.29,0.00,0,55.415900 12.873600,-1,2026-05-29 09:07:11,0,-1023,-485,-61,-429,0,42,-22,322,0,0,-1,-1,-1,-1,-1,1,-1,-1,-1,-1,1,57,516,-485,0,57,0,0,0,0,0,0,0,298,1024,0,0,0,0,0,0,0,0,0,0,0,0,0,0,0,0,0,0,0,0,0,0,0,0,0,0,0,0,0,0,0,0,0,0,0,0,0,0,0,0,0,0,0,0,0,0,0,0,0,0,
2026-05-29,09:07:11.670,8.32,100,100,0,-0.132,5.95,25,1.006,88,0,0.007,100,100,0.50,-7.29,0.00,0,55.415900 12.873600,-1,2026-05-29 09:07:11,0,-1024,-473,-66,-430,1,42,-20,321,0,0,-1,-1,-1,-1,-1,1,-1,-1,-1,-1,1,59,516,-473,0,59,0,0,0,0,0,0,0,297,1024,0,0,0,0,0,0,0,0,0,0,0,0,0,0,0,0,0,0,0,0,0,0,0,0,0,0,0,0,0,0,0,0,0,0,0,0,0,0,0,0,0,0,0,0,0,0,0,0,0,0,
2026-05-29,09:07:11.790,8.32,100,100,0,-0.122,5.95,25,1.006,89,0,0.018,100,100,0.50,-7.29,0.00,0,55.415900 12.873600,-1,2026-05-29 09:07:11,0,-1023,-413,-66,-430,0,43,-22,322,0,0,-1,-1,-1,-1,-1,1,-1,-1,-1,-1,1,59,516,-413,0,59,0,0,0,0,0,0,0,297,1024,0,0,0,0,0,0,0,0,0,0,0,0,0,0,0,0,0,0,0,0,0,0,0,0,0,0,0,0,0,0,0,0,0,0,0,0,0,0,0,0,0,0,0,0,0,0,0,0,0,0,
2026-05-29,09:07:11.900,8.32,100,100,0,-0.122,5.94,25,1.000,89,0,0.018,100,100,0.51,-7.30,0.00,0,55.415900 12.873600,-1,2026-05-29 09:07:11,0,-1024,-391,-74,-430,0,42,-20,322,0,0,-1,-1,-1,-1,-1,1,-1,-1,-1,-1,1,61,516,-391,0,61,0,0,0,0,0,0,0,297,1024,0,0,0,0,0,0,0,0,0,0,0,0,0,0,0,0,0,0,0,0,0,0,0,0,0,0,0,0,0,0,0,0,0,0,0,0,0,0,0,0,0,0,0,0,0,0,0,0,0,0,
2026-05-29,09:07:12.030,8.32,100,100,0,-0.118,5.93,25,1.004,89,0,0.000,100,100,0.45,-7.31,0.00,1,55.415900 12.873600,3,2026-05-29 09:07:12,0,-1024,-385,-75,-429,1,42,-22,322,0,0,-1,-1,-1,-1,-1,1,-1,-1,-1,-1,1,62,516,-385,0,62,0,0,0,0,0,0,0,298,1024,0,0,0,0,0,0,0,0,0,0,0,0,0,0,0,0,0,0,0,0,0,0,0,0,0,0,0,0,0,0,0,0,0,0,0,0,0,0,0,0,0,0,0,0,0,0,0,0,0,0,
2026-05-29,09:07:12.140,8.32,100,100,0,-0.116,5.92,25,0.998,88,0,0.013,100,100,0.42,-7.32,0.00,1,55.415900 12.873600,3,2026-05-29 09:07:12,0,-1024,-33,-69,-430,0,41,-19,321,0,0,-1,-1,-1,-1,-1,1,-1,-1,-1,-1,1,60,516,-33,0,60,0,0,0,0,0,0,0,297,1024,0,0,0,0,0,0,0,0,0,0,0,0,0,0,0,0,0,0,0,0,0,0,0,0,0,0,0,0,0,0,0,0,0,0,0,0,0,0,0,0,0,0,0,0,0,0,0,0,0,0,
2026-05-29,09:07:12.250,8.32,100,100,0,-0.116,5.92,25,0.998,88,0,0.013,100,100,0.42,-7.32,0.00,1,55.415900 12.873600,3,2026-05-29 09:07:12,0,-1024,-51,-75,-430,0,42,-22,322,0,0,-1,-1,-1,-1,-1,1,-1,-1,-1,-1,1,62,516,-51,0,62,0,0,0,0,0,0,0,297,1024,0,0,0,0,0,0,0,0,0,0,0,0,0,0,0,0,0,0,0,0,0,0,0,0,0,0,0,0,0,0,0,0,0,0,0,0,0,0,0,0,0,0,0,0,0,0,0,0,0,0,
2026-05-29,09:07:12.390,8.32,100,100,0,-0.335,5.91,25,1.004,88,0,-0.010,100,100,0.04,-7.43,0.00,1,55.415900 12.873600,3,2026-05-29 09:07:12,0,-1023,-128,-73,-430,0,42,-21,321,0,0,-1,-1,-1,-1,-1,1,-1,-1,-1,-1,1,61,516,-128,0,61,0,0,0,0,0,0,0,297,1024,0,0,0,0,0,0,0,0,0,0,0,0,0,0,0,0,0,0,0,0,0,0,0,0,0,0,0,0,0,0,0,0,0,0,0,0,0,0,0,0,0,0,0,0,0,0,0,0,0,0,
2026-05-29,09:07:12.510,8.32,100,100,0,-0.282,5.91,25,1.046,87,0,-0.001,100,100,0.16,-8.16,0.00,1,55.415900 12.873600,3,2026-05-29 09:07:12,0,-1023,-129,-73,-430,1,42,-19,322,0,0,-1,-1,-1,-1,-1,1,-1,-1,-1,-1,1,61,516,-129,0,61,0,0,0,0,0,0,0,297,1024,0,0,0,0,0,0,0,0,0,0,0,0,0,0,0,0,0,0,0,0,0,0,0,0,0,0,0,0,0,0,0,0,0,0,0,0,0,0,0,0,0,0,0,0,0,0,0,0,0,0,
2026-05-29,09:07:12.620,8.32,100,100,0,-0.282,5.91,25,1.046,88,0,-0.001,100,100,0.16,-8.16,0.00,1,55.415900 12.873600,3,2026-05-29 09:07:12,0,-1023,-128,-77,-430,0,42,-21,322,0,0,-1,-1,-1,-1,-1,1,-1,-1,-1,-1,1,62,516,-128,0,62,0,0,0,0,0,0,0,297,1024,0,0,0,0,0,0,0,0,0,0,0,0,0,0,0,0,0,0,0,0,0,0,0,0,0,0,0,0,0,0,0,0,0,0,0,0,0,0,0,0,0,0,0,0,0,0,0,0,0,0,
2026-05-29,09:07:12.740,8.32,100,100,0,-0.297,5.93,25,1.027,89,0,-0.001,100,100,0.50,-8.70,0.00,1,55.415900 12.873600,3,2026-05-29 09:07:12,0,-1023,-128,-78,-430,1,42,-21,322,0,0,-1,-1,-1,-1,-1,1,-1,-1,-1,-1,1,63,516,-128,0,63,0,0,0,0,0,0,0,297,1024,0,0,0,0,0,0,0,0,0,0,0,0,0,0,0,0,0,0,0,0,0,0,0,0,0,0,0,0,0,0,0,0,0,0,0,0,0,0,0,0,0,0,0,0,0,0,0,0,0,0,
2026-05-29,09:07:12.860,8.32,100,100,0,-0.306,5.93,25,0.930,89,0,0.035,100,100,0.64,-9.40,0.00,1,55.415900 12.873600,3,2026-05-29 09:07:12,0,-1024,-129,-78,-429,2,42,-21,322,0,0,-1,-1,-1,-1,-1,1,-1,-1,-1,-1,1,63,516,-129,0,63,0,0,0,0,0,0,0,298,1024,0,0,0,0,0,0,0,0,0,0,0,0,0,0,0,0,0,0,0,0,0,0,0,0,0,0,0,0,0,0,0,0,0,0,0,0,0,0,0,0,0,0,0,0,0,0,0,0,0,0,
2026-05-29,09:07:12.980,8.32,100,100,0,-0.349,5.93,25,0.784,92,0,0.004,100,100,1.41,-10.39,0.00,3,55.415900 12.873600,-2,2026-05-29 09:07:12,0,-1023,-187,-81,-430,0,42,-19,322,0,0,-1,-1,-1,-1,-1,1,-1,-1,-1,-1,1,64,516,-188,0,64,0,0,0,0,0,0,0,297,1024,0,0,0,0,0,0,0,0,0,0,0,0,0,0,0,0,0,0,0,0,0,0,0,0,0,0,0,0,0,0,0,0,0,0,0,0,0,0,0,0,0,0,0,0,0,0,0,0,0,0,
2026-05-29,09:07:13.090,8.32,100,100,0,-0.349,5.92,25,0.784,93,0,0.004,100,100,1.41,-10.39,0.00,3,55.415900 12.873600,-2,2026-05-29 09:07:13,0,-1024,-208,-84,-430,0,42,-21,322,0,0,-1,-1,-1,-1,-1,1,-1,-1,-1,-1,1,65,516,-208,0,65,0,0,0,0,0,0,0,297,1024,0,0,0,0,0,0,0,0,0,0,0,0,0,0,0,0,0,0,0,0,0,0,0,0,0,0,0,0,0,0,0,0,0,0,0,0,0,0,0,0,0,0,0,0,0,0,0,0,0,0,
2026-05-29,09:07:13.200,8.32,100,100,0,-0.224,5.91,25,1.114,95,0,0.092,100,100,1.64,-11.35,0.00,3,55.415900 12.873600,-2,2026-05-29 09:07:13,0,-1023,-223,-87,-430,0,42,-20,322,0,0,-1,-1,-1,-1,-1,1,-1,-1,-1,-1,1,66,516,-223,0,66,0,0,0,0,0,0,0,297,1024,0,0,0,0,0,0,0,0,0,0,0,0,0,0,0,0,0,0,0,0,0,0,0,0,0,0,0,0,0,0,0,0,0,0,0,0,0,0,0,0,0,0,0,0,0,0,0,0,0,0,
2026-05-29,09:07:13.310,8.32,100,100,0,-0.253,5.91,25,1.114,95,0,-0.031,100,100,1.64,-11.35,0.00,3,55.415900 12.873600,-2,2026-05-29 09:07:13,0,-1023,-223,-88,-430,0,42,-21,321,0,0,-1,-1,-1,-1,-1,1,-1,-1,-1,-1,1,66,516,-223,0,66,0,0,0,0,0,0,0,297,1024,0,0,0,0,0,0,0,0,0,0,0,0,0,0,0,0,0,0,0,0,0,0,0,0,0,0,0,0,0,0,0,0,0,0,0,0,0,0,0,0,0,0,0,0,0,0,0,0,0,0,
2026-05-29,09:07:13.430,8.32,100,100,0,-0.253,5.93,25,0.675,93,0,-0.031,100,100,1.19,-11.47,0.00,5,55.415900 12.873600,-2,2026-05-29 09:07:13,0,-1023,-223,-88,-429,0,43,-20,321,0,0,-1,-1,-1,-1,-1,1,-1,-1,-1,-1,1,66,516,-223,0,66,0,0,0,0,0,0,0,298,1024,0,0,0,0,0,0,0,0,0,0,0,0,0,0,0,0,0,0,0,0,0,0,0,0,0,0,0,0,0,0,0,0,0,0,0,0,0,0,0,0,0,0,0,0,0,0,0,0,0,0,
2026-05-29,09:07:13.550,8.32,100,100,0,-0.171,5.96,25,1.062,94,0,0.009,100,100,0.33,-11.92,0.00,5,55.415900 12.873600,-2,2026-05-29 09:07:13,0,-1023,-974,-82,-429,0,41,-20,321,0,0,-1,-1,-1,-1,-1,1,-1,-1,-1,-1,0,64,516,-974,0,64,0,0,0,0,0,0,0,298,1024,0,0,0,0,0,0,0,0,0,0,0,0,0,0,0,0,0,0,0,0,0,0,0,0,0,0,0,0,0,0,0,0,0,0,0,0,0,0,0,0,0,0,0,0,0,0,0,0,0,0,
2026-05-29,09:07:13.660,8.32,100,100,0,-0.034,5.95,25,1.218,95,0,0.180,100,100,0.85,-11.88,0.00,5,55.415900 12.873600,-2,2026-05-29 09:07:13,0,-1022,-1024,-75,-430,0,42,-21,322,0,0,-1,-1,-1,-1,-1,1,-1,-1,-1,-1,0,62,515,-1024,0,62,0,0,0,0,0,0,0,297,1024,0,0,0,0,0,0,0,0,0,0,0,0,0,0,0,0,0,0,0,0,0,0,0,0,0,0,0,0,0,0,0,0,0,0,0,0,0,0,0,0,0,0,0,0,0,0,0,0,0,0,
2026-05-29,09:07:13.800,8.32,100,100,0,-0.034,5.96,25,1.218,97,0,0.180,100,100,0.85,-11.88,0.00,5,55.415900 12.873600,-2,2026-05-29 09:07:13,0,-635,-1024,-47,-430,0,41,-19,322,0,0,-1,-1,-1,-1,-1,1,-1,-1,-1,-1,0,52,265,-1024,0,52,0,0,0,0,0,0,0,297,1024,0,0,0,0,0,0,0,0,0,0,0,0,0,0,0,0,0,0,0,0,0,0,0,0,0,0,0,0,0,0,0,0,0,0,0,0,0,0,0,0,0,0,0,0,0,0,0,0,0,0,
2026-05-29,09:07:13.910,8.32,100,100,0,0.013,5.95,25,0.976,97,0,-0.013,100,100,0.83,-11.79,0.00,5,55.415900 12.873600,-2,2026-05-29 09:07:13,0,-341,-1023,0,-430,1,42,-20,322,0,0,-1,-1,-1,-1,-1,1,-1,-1,-1,-1,0,36,132,-1023,0,36,0,0,0,0,0,0,0,297,1024,0,0,0,0,0,0,0,0,0,0,0,0,0,0,0,0,0,0,0,0,0,0,0,0,0,0,0,0,0,0,0,0,0,0,0,0,0,0,0,0,0,0,0,0,0,0,0,0,0,0,
2026-05-29,09:07:14.030,8.32,100,100,0,0.023,5.93,25,0.973,95,0,0.093,100,100,2.03,-11.08,0.00,6,55.415900 12.873600,4,2026-05-29 09:07:14,0,-56,-1024,0,-430,1,42,-19,321,0,0,-1,-1,-1,-1,-1,1,-1,-1,-1,-1,0,36,28,-1024,0,36,0,0,0,0,0,0,0,297,1024,0,0,0,0,0,0,0,0,0,0,0,0,0,0,0,0,0,0,0,0,0,0,0,0,0,0,0,0,0,0,0,0,0,0,0,0,0,0,0,0,0,0,0,0,0,0,0,0,0,0,
2026-05-29,09:07:14.140,8.32,100,100,0,0.023,5.96,25,0.973,95,0,0.093,100,100,2.03,-11.08,0.00,6,55.415900 12.873600,4,2026-05-29 09:07:14,0,0,-1024,0,-429,1,41,-18,321,0,0,-1,-1,-1,-1,-1,1,-1,-1,-1,-1,0,36,8,-1024,0,36,0,0,0,0,0,0,0,298,1024,0,0,0,0,0,0,0,0,0,0,0,0,0,0,0,0,0,0,0,0,0,0,0,0,0,0,0,0,0,0,0,0,0,0,0,0,0,0,0,0,0,0,0,0,0,0,0,0,0,0,
2026-05-29,09:07:14.250,8.32,100,100,0,0.060,5.95,25,0.867,94,0,0.093,100,100,1.75,-9.59,0.00,6,55.415900 12.873600,4,2026-05-29 09:07:14,0,0,-1024,0,-430,0,42,-22,322,0,0,-1,-1,-1,-1,-1,1,-1,-1,-1,-1,0,36,8,-1024,0,36,0,0,0,0,0,0,0,297,1024,0,0,0,0,0,0,0,0,0,0,0,0,0,0,0,0,0,0,0,0,0,0,0,0,0,0,0,0,0,0,0,0,0,0,0,0,0,0,0,0,0,0,0,0,0,0,0,0,0,0,
2026-05-29,09:07:14.370,8.32,100,100,0,0.025,5.96,25,0.882,92,0,-0.047,100,100,1.30,-8.87,0.00,6,55.415900 12.873600,4,2026-05-29 09:07:14,0,0,-1024,0,-430,0,43,-20,322,0,0,-1,-1,-1,-1,-1,1,-1,-1,-1,-1,0,36,8,-1024,0,36,0,0,0,0,0,0,0,297,1024,0,0,0,0,0,0,0,0,0,0,0,0,0,0,0,0,0,0,0,0,0,0,0,0,0,0,0,0,0,0,0,0,0,0,0,0,0,0,0,0,0,0,0,0,0,0,0,0,0,0,
2026-05-29,09:07:14.490,8.32,100,100,0,0.038,5.95,25,0.834,91,0,-0.047,100,100,1.30,-8.87,0.00,4,55.415900 12.873600,4,2026-05-29 09:07:14,0,0,-1024,0,-430,2,42,-20,322,0,0,-1,-1,-1,-1,-1,1,-1,-1,-1,-1,0,36,8,-1024,0,36,0,0,0,0,0,0,0,298,1024,0,0,0,0,0,0,0,0,0,0,0,0,0,0,0,0,0,0,0,0,0,0,0,0,0,0,0,0,0,0,0,0,0,0,0,0,0,0,0,0,0,0,0,0,0,0,0,0,0,0,
2026-05-29,09:07:14.600,8.32,100,100,0,0.038,5.96,25,0.834,91,0,0.077,100,100,1.05,-7.65,0.00,4,55.415900 12.873600,4,2026-05-29 09:07:14,0,0,-1024,0,-429,0,42,-21,321,0,0,-1,-1,-1,-1,-1,1,-1,-1,-1,-1,0,36,8,-1024,0,36,0,0,0,0,0,0,0,298,1024,0,0,0,0,0,0,0,0,0,0,0,0,0,0,0,0,0,0,0,0,0,0,0,0,0,0,0,0,0,0,0,0,0,0,0,0,0,0,0,0,0,0,0,0,0,0,0,0,0,0,
2026-05-29,09:07:14.720,8.32,100,100,0,0.010,5.97,25,1.038,92,0,0.089,100,100,1.30,-6.88,0.00,4,55.415900 12.873600,4,2026-05-29 09:07:14,0,0,-1024,0,-429,0,43,-19,322,0,0,-1,-1,-1,-1,-1,1,-1,-1,-1,-1,0,36,8,-1024,0,36,0,0,0,0,0,0,0,298,1024,0,0,0,0,0,0,0,0,0,0,0,0,0,0,0,0,0,0,0,0,0,0,0,0,0,0,0,0,0,0,0,0,0,0,0,0,0,0,0,0,0,0,0,0,0,0,0,0,0,0,
2026-05-29,09:07:14.840,8.32,100,100,0,-0.177,5.98,25,0.999,91,0,0.020,100,100,1.30,-6.88,0.00,4,55.415900 12.873600,4,2026-05-29 09:07:14,0,0,-1024,0,-430,0,42,-18,322,0,0,-1,-1,-1,-1,-1,1,-1,-1,-1,-1,0,36,8,-1024,0,36,0,0,0,0,0,0,0,297,1024,0,0,0,0,0,0,0,0,0,0,0,0,0,0,0,0,0,0,0,0,0,0,0,0,0,0,0,0,0,0,0,0,0,0,0,0,0,0,0,0,0,0,0,0,0,0,0,0,0,0,
2026-05-29,09:07:14.960,8.33,100,100,0,-0.177,5.99,25,0.999,89,0,0.020,100,100,1.20,-6.27,0.00,1,55.415800 12.873600,-1,2026-05-29 09:07:15,0,0,-1024,0,-429,1,41,-18,322,0,0,-1,-1,-1,-1,-1,1,-1,-1,-1,-1,0,36,8,-1024,0,36,0,0,0,0,0,0,0,298,1024,0,0,0,0,0,0,0,0,0,0,0,0,0,0,0,0,0,0,0,0,0,0,0,0,0,0,0,0,0,0,0,0,0,0,0,0,0,0,0,0,0,0,0,0,0,0,0,0,0,0,
2026-05-29,09:07:15.080,8.33,100,100,0,-0.127,5.96,25,0.999,91,0,0.029,100,100,1.16,-6.35,0.00,1,55.415800 12.873600,-1,2026-05-29 09:07:15,0,0,-1024,0,-430,0,41,-19,322,0,0,-1,-1,-1,-1,-1,1,-1,-1,-1,-1,0,36,8,-1024,0,36,0,0,0,0,0,0,0,297,1024,0,0,0,0,0,0,0,0,0,0,0,0,0,0,0,0,0,0,0,0,0,0,0,0,0,0,0,0,0,0,0,0,0,0,0,0,0,0,0,0,0,0,0,0,0,0,0,0,0,0,
2026-05-29,09:07:15.200,8.33,100,100,0,-0.136,5.97,25,0.989,89,0,0.023,100,100,1.14,-6.49,0.00,1,55.415800 12.873600,-1,2026-05-29 09:07:15,0,0,-1024,0,-430,0,42,-21,322,0,0,-1,-1,-1,-1,-1,1,-1,-1,-1,-1,0,36,8,-1024,0,36,0,0,0,0,0,0,0,298,1024,0,0,0,0,0,0,0,0,0,0,0,0,0,0,0,0,0,0,0,0,0,0,0,0,0,0,0,0,0,0,0,0,0,0,0,0,0,0,0,0,0,0,0,0,0,0,0,0,0,0,
2026-05-29,09:07:15.310,8.32,100,100,0,-0.136,5.98,25,0.989,89,0,0.023,100,100,1.14,-6.49,0.00,1,55.415800 12.873600,-1,2026-05-29 09:07:15,0,0,-1024,0,-430,0,42,-20,322,0,0,-1,-1,-1,-1,-1,1,-1,-1,-1,-1,0,36,8,-1024,0,36,0,0,0,0,0,0,0,297,1024,0,0,0,0,0,0,0,0,0,0,0,0,0,0,0,0,0,0,0,0,0,0,0,0,0,0,0,0,0,0,0,0,0,0,0,0,0,0,0,0,0,0,0,0,0,0,0,0,0,0,
2026-05-29,09:07:15.430,8.33,100,100,0,-0.139,5.99,25,0.991,90,0,0.020,100,100,1.13,-6.63,0.00,1,55.415800 12.873600,-1,2026-05-29 09:07:15,0,0,-1023,0,-429,0,41,-21,322,0,0,-1,-1,-1,-1,-1,1,-1,-1,-1,-1,0,36,8,-1023,0,36,0,0,0,0,0,0,0,298,1024,0,0,0,0,0,0,0,0,0,0,0,0,0,0,0,0,0,0,0,0,0,0,0,0,0,0,0,0,0,0,0,0,0,0,0,0,0,0,0,0,0,0,0,0,0,0,0,0,0,0,
2026-05-29,09:07:15.550,8.33,100,100,0,-0.139,5.99,25,1.002,88,0,0.021,100,100,1.13,-6.75,0.00,1,55.415800 12.873600,-1,2026-05-29 09:07:15,0,0,-1023,0,-429,0,42,-22,322,0,0,-1,-1,-1,-1,-1,1,-1,-1,-1,-1,0,36,8,-1023,0,36,0,0,0,0,0,0,0,298,1024,0,0,0,0,0,0,0,0,0,0,0,0,0,0,0,0,0,0,0,0,0,0,0,0,0,0,0,0,0,0,0,0,0,0,0,0,0,0,0,0,0,0,0,0,0,0,0,0,0,0,
2026-05-29,09:07:15.660,8.33,100,100,0,-0.139,5.99,25,1.002,88,0,0.021,100,100,1.13,-6.75,0.00,1,55.415800 12.873600,-1,2026-05-29 09:07:15,0,0,-1024,0,-430,0,43,-20,322,0,0,-1,-1,-1,-1,-1,1,-1,-1,-1,-1,0,36,8,-1024,0,36,0,0,0,0,0,0,0,297,1024,0,0,0,0,0,0,0,0,0,0,0,0,0,0,0,0,0,0,0,0,0,0,0,0,0,0,0,0,0,0,0,0,0,0,0,0,0,0,0,0,0,0,0,0,0,0,0,0,0,0,
2026-05-29,09:07:15.780,8.33,100,100,0,-0.138,6.00,25,0.994,88,0,0.022,100,100,1.13,-6.86,0.00,1,55.415800 12.873600,-1,2026-05-29 09:07:15,0,0,-1024,0,-429,0,42,-19,321,0,0,-1,-1,-1,-1,-1,1,-1,-1,-1,-1,0,36,8,-1024,0,36,0,0,0,0,0,0,0,298,1024,0,0,0,0,0,0,0,0,0,0,0,0,0,0,0,0,0,0,0,0,0,0,0,0,0,0,0,0,0,0,0,0,0,0,0,0,0,0,0,0,0,0,0,0,0,0,0,0,0,0,
2026-05-29,09:07:15.900,8.33,100,100,0,-0.139,6.00,25,0.988,87,0,0.023,100,100,1.13,-6.97,0.00,1,55.415800 12.873600,-1,2026-05-29 09:07:15,0,0,-1024,0,-429,0,42,-20,322,0,0,-1,-1,-1,-1,-1,1,-1,-1,-1,-1,0,36,8,-1024,0,36,0,0,0,0,0,0,0,298,1024,0,0,0,0,0,0,0,0,0,0,0,0,0,0,0,0,0,0,0,0,0,0,0,0,0,0,0,0,0,0,0,0,0,0,0,0,0,0,0,0,0,0,0,0,0,0,0,0,0,0,
2026-05-29,09:07:16.020,8.32,100,100,0,-0.140,6.00,25,0.988,86,0,0.023,100,100,1.12,-7.07,0.00,0,55.415800 12.873600,2,2026-05-29 09:07:16,0,0,-1024,0,-429,2,43,-20,321,0,0,-1,-1,-1,-1,-1,1,-1,-1,-1,-1,0,36,8,-1024,0,36,0,0,0,0,0,0,0,298,1024,0,0,0,0,0,0,0,0,0,0,0,0,0,0,0,0,0,0,0,0,0,0,0,0,0,0,0,0,0,0,0,0,0,0,0,0,0,0,0,0,0,0,0,0,0,0,0,0,0,0,
2026-05-29,09:07:16.130,8.32,100,100,0,-0.140,6.00,25,0.988,87,0,0.023,100,100,1.12,-7.07,0.00,0,55.415800 12.873600,2,2026-05-29 09:07:16,0,0,-1023,0,-430,0,41,-20,322,0,0,-1,-1,-1,-1,-1,1,-1,-1,-1,-1,0,36,8,-1023,0,36,0,0,0,0,0,0,0,297,1024,0,0,0,0,0,0,0,0,0,0,0,0,0,0,0,0,0,0,0,0,0,0,0,0,0,0,0,0,0,0,0,0,0,0,0,0,0,0,0,0,0,0,0,0,0,0,0,0,0,0,
2026-05-29,09:07:16.240,8.32,100,100,0,-0.139,6.00,25,0.993,87,0,0.024,100,100,1.11,-7.15,0.00,0,55.415800 12.873600,2,2026-05-29 09:07:16,0,0,-1024,0,-430,0,42,-22,322,0,0,-1,-1,-1,-1,-1,1,-1,-1,-1,-1,0,36,8,-1023,0,36,0,0,0,0,0,0,0,297,1024,0,0,0,0,0,0,0,0,0,0,0,0,0,0,0,0,0,0,0,0,0,0,0,0,0,0,0,0,0,0,0,0,0,0,0,0,0,0,0,0,0,0,0,0,0,0,0,0,0,0,
2026-05-29,09:07:16.350,8.33,100,100,0,-0.139,6.00,25,0.993,87,0,0.024,100,100,1.11,-7.15,0.00,0,55.415800 12.873600,2,2026-05-29 09:07:16,0,0,-1024,0,-429,0,42,-21,322,0,0,-1,-1,-1,-1,-1,1,-1,-1,-1,-1,0,36,8,-1024,0,36,0,0,0,0,0,0,0,298,1024,0,0,0,0,0,0,0,0,0,0,0,0,0,0,0,0,0,0,0,0,0,0,0,0,0,0,0,0,0,0,0,0,0,0,0,0,0,0,0,0,0,0,0,0,0,0,0,0,0,0,
2026-05-29,09:07:16.470,8.32,100,100,0,-0.139,6.00,25,0.991,88,0,0.024,100,100,1.10,-7.23,0.00,0,55.415800 12.873600,2,2026-05-29 09:07:16,0,0,-1023,0,-430,0,42,-20,322,0,0,-1,-1,-1,-1,-1,1,-1,-1,-1,-1,0,36,8,-1023,0,36,0,0,0,0,0,0,0,297,1024,0,0,0,0,0,0,0,0,0,0,0,0,0,0,0,0,0,0,0,0,0,0,0,0,0,0,0,0,0,0,0,0,0,0,0,0,0,0,0,0,0,0,0,0,0,0,0,0,0,0,
2026-05-29,09:07:16.580,8.33,100,100,0,-0.139,5.97,25,0.995,87,0,0.024,100,100,1.10,-7.30,0.00,0,55.415800 12.873600,2,2026-05-29 09:07:16,0,0,-1024,0,-430,0,42,-19,322,0,0,-1,-1,-1,-1,-1,1,-1,-1,-1,-1,0,36,8,-1024,0,36,0,0,0,0,0,0,0,297,1024,0,0,0,0,0,0,0,0,0,0,0,0,0,0,0,0,0,0,0,0,0,0,0,0,0,0,0,0,0,0,0,0,0,0,0,0,0,0,0,0,0,0,0,0,0,0,0,0,0,0,
2026-05-29,09:07:16.700,8.33,100,100,0,-0.138,5.98,25,0.994,85,0,0.023,100,100,1.10,-7.30,0.00,0,55.415800 12.873600,2,2026-05-29 09:07:16,0,0,-1023,0,-430,1,43,-19,322,0,0,-1,-1,-1,-1,-1,1,-1,-1,-1,-1,0,36,8,-1023,0,36,0,0,0,0,0,0,0,297,1024,0,0,0,0,0,0,0,0,0,0,0,0,0,0,0,0,0,0,0,0,0,0,0,0,0,0,0,0,0,0,0,0,0,0,0,0,0,0,0,0,0,0,0,0,0,0,0,0,0,0,
2026-05-29,09:07:16.820,8.33,100,100,0,-0.138,5.99,25,0.994,85,0,0.023,100,100,1.10,-7.37,0.00,0,55.415800 12.873600,2,2026-05-29 09:07:16,0,0,-1023,0,-429,1,42,-19,322,0,0,-1,-1,-1,-1,-1,1,-1,-1,-1,-1,0,36,8,-1023,0,36,0,0,0,0,0,0,0,298,1024,0,0,0,0,0,0,0,0,0,0,0,0,0,0,0,0,0,0,0,0,0,0,0,0,0,0,0,0,0,0,0,0,0,0,0,0,0,0,0,0,0,0,0,0,0,0,0,0,0,0,
2026-05-29,09:07:16.950,8.32,100,100,0,-0.139,5.99,25,0.989,85,0,0.022,100,100,1.09,-7.44,0.00,0,55.415800 12.873600,1,2026-05-29 09:07:16,0,0,-1023,0,-429,0,42,-20,322,0,0,-1,-1,-1,-1,-1,1,-1,-1,-1,-1,0,36,8,-1024,0,36,0,0,0,0,0,0,0,297,1024,0,0,0,0,0,0,0,0,0,0,0,0,0,0,0,0,0,0,0,0,0,0,0,0,0,0,0,0,0,0,0,0,0,0,0,0,0,0,0,0,0,0,0,0,0,0,0,0,0,0,
2026-05-29,09:07:17.070,8.33,100,100,0,-0.138,5.99,25,0.991,84,0,0.022,100,100,1.09,-7.49,0.00,0,55.415800 12.873600,1,2026-05-29 09:07:17,0,0,-1024,0,-429,0,41,-18,321,0,0,-1,-1,-1,-1,-1,1,-1,-1,-1,-1,0,36,8,-1024,0,36,0,0,0,0,0,0,0,298,1024,0,0,0,0,0,0,0,0,0,0,0,0,0,0,0,0,0,0,0,0,0,0,0,0,0,0,0,0,0,0,0,0,0,0,0,0,0,0,0,0,0,0,0,0,0,0,0,0,0,0,
2026-05-29,09:07:17.200,8.32,100,100,0,-0.139,6.00,25,0.993,84,0,0.023,100,100,1.09,-7.49,0.00,0,55.415800 12.873600,1,2026-05-29 09:07:17,0,0,-1024,0,-430,0,41,-19,322,0,0,-1,-1,-1,-1,-1,1,-1,-1,-1,-1,0,36,8,-1024,0,36,0,0,0,0,0,0,0,297,1024,0,0,0,0,0,0,0,0,0,0,0,0,0,0,0,0,0,0,0,0,0,0,0,0,0,0,0,0,0,0,0,0,0,0,0,0,0,0,0,0,0,0,0,0,0,0,0,0,0,0,
2026-05-29,09:07:17.310,8.32,100,100,0,-0.139,6.00,25,0.993,85,0,0.023,100,100,1.09,-7.55,0.00,0,55.415800 12.873600,1,2026-05-29 09:07:17,0,0,-1023,0,-430,0,42,-21,322,0,0,-1,-1,-1,-1,-1,1,-1,-1,-1,-1,0,36,8,-1023,0,36,0,0,0,0,0,0,0,297,1024,0,0,0,0,0,0,0,0,0,0,0,0,0,0,0,0,0,0,0,0,0,0,0,0,0,0,0,0,0,0,0,0,0,0,0,0,0,0,0,0,0,0,0,0,0,0,0,0,0,0,
2026-05-29,09:07:17.450,8.32,100,100,0,-0.140,6.00,25,0.997,87,0,0.024,100,100,1.09,-7.59,0.00,0,55.415800 12.873600,1,2026-05-29 09:07:17,0,0,-1024,0,-430,0,43,-20,321,0,0,-1,-1,-1,-1,-1,1,-1,-1,-1,-1,0,36,8,-1024,0,36,0,0,0,0,0,0,0,297,1024,0,0,0,0,0,0,0,0,0,0,0,0,0,0,0,0,0,0,0,0,0,0,0,0,0,0,0,0,0,0,0,0,0,0,0,0,0,0,0,0,0,0,0,0,0,0,0,0,0,0,
2026-05-29,09:07:17.570,8.32,100,100,0,-0.138,6.00,25,0.993,86,0,0.023,100,100,1.08,-7.64,0.00,0,55.415800 12.873600,1,2026-05-29 09:07:17,0,0,-1024,0,-430,0,42,-21,322,0,0,-1,-1,-1,-1,-1,1,-1,-1,-1,-1,0,36,8,-1024,0,36,0,0,0,0,0,0,0,297,1024,0,0,0,0,0,0,0,0,0,0,0,0,0,0,0,0,0,0,0,0,0,0,0,0,0,0,0,0,0,0,0,0,0,0,0,0,0,0,0,0,0,0,0,0,0,0,0,0,0,0,
2026-05-29,09:07:17.690,8.32,100,100,0,-0.138,6.00,25,0.993,83,0,0.023,100,100,1.08,-7.64,0.00,0,55.415800 12.873600,1,2026-05-29 09:07:17,0,0,-1024,0,-430,0,42,-20,322,0,0,-1,-1,-1,-1,-1,1,-1,-1,-1,-1,0,36,8,-1024,0,36,0,0,0,0,0,0,0,298,1024,0,0,0,0,0,0,0,0,0,0,0,0,0,0,0,0,0,0,0,0,0,0,0,0,0,0,0,0,0,0,0,0,0,0,0,0,0,0,0,0,0,0,0,0,0,0,0,0,0,0,
2026-05-29,09:07:17.800,8.32,100,100,0,-0.138,6.00,25,0.999,82,0,0.023,100,100,1.08,-7.64,0.00,0,55.415800 12.873600,1,2026-05-29 09:07:17,0,0,-1024,0,-429,0,43,-21,321,0,0,-1,-1,-1,-1,-1,1,-1,-1,-1,-1,0,36,8,-1024,0,36,0,0,0,0,0,0,0,298,1024,0,0,0,0,0,0,0,0,0,0,0,0,0,0,0,0,0,0,0,0,0,0,0,0,0,0,0,0,0,0,0,0,0,0,0,0,0,0,0,0,0,0,0,0,0,0,0,0,0,0,
2026-05-29,09:07:17.920,8.32,100,99,0,-0.139,6.00,25,0.994,84,0,0.023,100,100,1.08,-7.72,0.00,0,55.415800 12.873500,1,2026-05-29 09:07:17,0,0,-1024,0,-429,0,42,-19,322,0,0,-1,-1,-1,-1,-1,1,-1,-1,-1,-1,0,36,8,-1024,0,36,0,0,0,0,0,0,0,298,1024,0,0,0,0,0,0,0,0,0,0,0,0,0,0,0,0,0,0,0,0,0,0,0,0,0,0,0,0,0,0,0,0,0,0,0,0,0,0,0,0,0,0,0,0,0,0,0,0,0,0,
2026-05-29,09:07:18.040,8.32,100,97,0,-0.139,6.00,25,0.994,83,0,0.023,100,100,1.08,-7.72,0.00,0,55.415800 12.873500,-1,2026-05-29 09:07:18,0,0,-1024,0,-429,0,41,-20,322,0,0,-1,-1,-1,-1,-1,1,-1,-1,-1,-1,0,36,8,-1023,0,36,0,0,0,0,0,0,0,298,1024,0,0,0,0,0,0,0,0,0,0,0,0,0,0,0,0,0,0,0,0,0,0,0,0,0,0,0,0,0,0,0,0,0,0,0,0,0,0,0,0,0,0,0,0,0,0,0,0,0,0,
2026-05-29,09:07:18.150,8.32,100,94,0,-0.139,6.00,25,0.988,82,0,0.023,99,100,1.08,-7.75,0.00,0,55.415800 12.873500,-1,2026-05-29 09:07:18,0,0,-1024,0,-429,1,41,-20,321,0,0,-1,-1,-1,-1,-1,1,-1,-1,-1,-1,0,36,8,-1024,0,36,0,0,0,0,0,0,0,298,1024,0,0,0,0,0,0,0,0,0,0,0,0,0,0,0,0,0,0,0,0,0,0,0,0,0,0,0,0,0,0,0,0,0,0,0,0,0,0,0,0,0,0,0,0,0,0,0,0,0,0,
2026-05-29,09:07:18.260,8.32,100,90,0,-0.140,6.00,25,0.994,82,0,0.023,99,100,1.08,-7.78,0.00,0,55.415800 12.873500,-1,2026-05-29 09:07:18,0,0,-1024,0,-430,0,43,-20,322,0,0,-1,-1,-1,-1,-1,1,-1,-1,-1,-1,0,36,8,-1024,0,36,0,0,0,0,0,0,0,297,1024,0,0,0,0,0,0,0,0,0,0,0,0,0,0,0,0,0,0,0,0,0,0,0,0,0,0,0,0,0,0,0,0,0,0,0,0,0,0,0,0,0,0,0,0,0,0,0,0,0,0,
2026-05-29,09:07:18.380,8.32,100,91,0,-0.138,5.98,25,0.995,81,0,0.023,99,100,1.08,-7.78,0.00,0,55.415800 12.873500,-1,2026-05-29 09:07:18,0,0,-1024,0,-430,0,42,-19,322,0,0,-1,-1,-1,-1,-1,1,-1,-1,-1,-1,0,36,8,-1024,0,36,0,0,0,0,0,0,0,297,1024,0,0,0,0,0,0,0,0,0,0,0,0,0,0,0,0,0,0,0,0,0,0,0,0,0,0,0,0,0,0,0,0,0,0,0,0,0,0,0,0,0,0,0,0,0,0,0,0,0,0,
2026-05-29,09:07:18.500,8.32,100,90,0,-0.138,5.98,25,0.995,80,0,0.025,99,100,1.08,-7.81,0.00,0,55.415800 12.873500,-1,2026-05-29 09:07:18,0,0,-1024,0,-430,1,42,-21,321,0,0,-1,-1,-1,-1,-1,1,-1,-1,-1,-1,0,36,8,-1024,0,36,0,0,0,0,0,0,0,298,1024,0,0,0,0,0,0,0,0,0,0,0,0,0,0,0,0,0,0,0,0,0,0,0,0,0,0,0,0,0,0,0,0,0,0,0,0,0,0,0,0,0,0,0,0,0,0,0,0,0,0,
2026-05-29,09:07:18.610,8.32,100,92,0,-0.138,5.99,25,0.992,79,0,0.024,99,100,1.08,-7.84,0.00,0,55.415800 12.873500,-1,2026-05-29 09:07:18,0,0,-1024,0,-430,0,42,-21,322,0,0,-1,-1,-1,-1,-1,1,-1,-1,-1,-1,0,36,8,-1024,0,36,0,0,0,0,0,0,0,297,1024,0,0,0,0,0,0,0,0,0,0,0,0,0,0,0,0,0,0,0,0,0,0,0,0,0,0,0,0,0,0,0,0,0,0,0,0,0,0,0,0,0,0,0,0,0,0,0,0,0,0,
2026-05-29,09:07:18.730,8.32,100,92,0,-0.140,5.97,25,0.993,78,0,0.024,99,100,1.08,-7.84,0.00,0,55.415800 12.873500,-1,2026-05-29 09:07:18,0,0,-1024,0,-430,0,42,-21,321,0,0,-1,-1,-1,-1,-1,1,-1,-1,-1,-1,0,36,8,-1024,0,36,0,0,0,0,0,0,0,297,1024,0,0,0,0,0,0,0,0,0,0,0,0,0,0,0,0,0,0,0,0,0,0,0,0,0,0,0,0,0,0,0,0,0,0,0,0,0,0,0,0,0,0,0,0,0,0,0,0,0,0,
2026-05-29,09:07:18.840,8.32,100,92,0,-0.140,5.97,25,0.993,77,0,0.024,99,100,1.08,-7.86,0.00,0,55.415800 12.873500,-1,2026-05-29 09:07:18,0,0,-1024,0,-430,0,41,-19,321,0,0,-1,-1,-1,-1,-1,1,-1,-1,-1,-1,0,36,8,-1024,0,36,0,0,0,0,0,0,0,297,1024,0,0,0,0,0,0,0,0,0,0,0,0,0,0,0,0,0,0,0,0,0,0,0,0,0,0,0,0,0,0,0,0,0,0,0,0,0,0,0,0,0,0,0,0,0,0,0,0,0,0,
2026-05-29,09:07:18.980,8.32,100,94,0,-0.140,5.96,25,1.000,78,0,0.024,100,100,1.08,-7.88,0.00,0,55.415800 12.873500,2,2026-05-29 09:07:18,0,0,-1024,0,-429,0,42,-20,321,0,0,-1,-1,-1,-1,-1,1,-1,-1,-1,-1,0,36,8,-1024,0,36,0,0,0,0,0,0,0,298,1024,0,0,0,0,0,0,0,0,0,0,0,0,0,0,0,0,0,0,0,0,0,0,0,0,0,0,0,0,0,0,0,0,0,0,0,0,0,0,0,0,0,0,0,0,0,0,0,0,0,0,
2026-05-29,09:07:19.100,8.32,100,96,0,-0.141,5.95,25,1.003,78,0,0.025,99,100,1.08,-7.90,0.00,0,55.415800 12.873500,2,2026-05-29 09:07:19,0,0,-1024,0,-430,0,42,-20,322,0,0,-1,-1,-1,-1,-1,1,-1,-1,-1,-1,0,36,8,-1024,0,36,0,0,0,0,0,0,0,297,1024,0,0,0,0,0,0,0,0,0,0,0,0,0,0,0,0,0,0,0,0,0,0,0,0,0,0,0,0,0,0,0,0,0,0,0,0,0,0,0,0,0,0,0,0,0,0,0,0,0,0,
2026-05-29,09:07:19.220,8.32,100,97,0,-0.141,5.96,25,1.003,79,0,0.023,99,100,1.08,-7.90,0.00,0,55.415800 12.873500,2,2026-05-29 09:07:19,0,0,-1024,0,-430,0,43,-18,322,0,0,-1,-1,-1,-1,-1,1,-1,-1,-1,-1,0,36,8,-1024,0,36,0,0,0,0,0,0,0,297,1024,0,0,0,0,0,0,0,0,0,0,0,0,0,0,0,0,0,0,0,0,0,0,0,0,0,0,0,0,0,0,0,0,0,0,0,0,0,0,0,0,0,0,0,0,0,0,0,0,0,0,
2026-05-29,09:07:19.340,8.32,100,98,0,-0.139,5.97,25,0.996,80,0,0.023,99,100,1.07,-7.92,0.00,0,55.415800 12.873500,2,2026-05-29 09:07:19,0,0,-1024,0,-430,0,42,-20,322,0,0,-1,-1,-1,-1,-1,1,-1,-1,-1,-1,0,36,8,-1024,0,36,0,0,0,0,0,0,0,297,1024,0,0,0,0,0,0,0,0,0,0,0,0,0,0,0,0,0,0,0,0,0,0,0,0,0,0,0,0,0,0,0,0,0,0,0,0,0,0,0,0,0,0,0,0,0,0,0,0,0,0,
2026-05-29,09:07:19.460,8.32,100,98,0,-0.138,5.98,25,0.988,80,0,0.022,99,100,1.07,-7.94,0.00,1,55.415800 12.873500,2,2026-05-29 09:07:19,0,0,-1023,0,-430,0,42,-21,322,0,0,-1,-1,-1,-1,-1,1,-1,-1,-1,-1,0,36,8,-1024,0,36,0,0,0,0,0,0,0,297,1024,0,0,0,0,0,0,0,0,0,0,0,0,0,0,0,0,0,0,0,0,0,0,0,0,0,0,0,0,0,0,0,0,0,0,0,0,0,0,0,0,0,0,0,0,0,0,0,0,0,0,
2026-05-29,09:07:19.580,8.32,100,99,0,-0.139,5.99,25,0.996,78,0,0.023,99,100,1.07,-7.96,0.00,1,55.415800 12.873500,2,2026-05-29 09:07:19,0,0,-1023,0,-429,0,43,-20,322,0,0,-1,-1,-1,-1,-1,1,-1,-1,-1,-1,0,36,8,-1023,0,36,0,0,0,0,0,0,0,298,1024,0,0,0,0,0,0,0,0,0,0,0,0,0,0,0,0,0,0,0,0,0,0,0,0,0,0,0,0,0,0,0,0,0,0,0,0,0,0,0,0,0,0,0,0,0,0,0,0,0,0,
2026-05-29,09:07:19.710,8.32,100,97,0,-0.139,5.99,25,0.996,77,0,0.023,99,100,1.07,-7.96,0.00,1,55.415800 12.873500,2,2026-05-29 09:07:19,0,0,-1023,0,-429,0,42,-20,322,0,0,-1,-1,-1,-1,-1,1,-1,-1,-1,-1,0,36,8,-1023,0,36,0,0,0,0,0,0,0,297,1024,0,0,0,0,0,0,0,0,0,0,0,0,0,0,0,0,0,0,0,0,0,0,0,0,0,0,0,0,0,0,0,0,0,0,0,0,0,0,0,0,0,0,0,0,0,0,0,0,0,0,
2026-05-29,09:07:19.830,8.32,100,96,0,-0.138,5.99,25,0.999,76,0,0.023,100,100,1.08,-7.97,0.00,1,55.415800 12.873500,2,2026-05-29 09:07:19,0,0,-1024,0,-429,0,42,-21,322,0,0,-1,-1,-1,-1,-1,1,-1,-1,-1,-1,0,36,8,-1024,0,36,0,0,0,0,0,0,0,298,1024,0,0,0,0,0,0,0,0,0,0,0,0,0,0,0,0,0,0,0,0,0,0,0,0,0,0,0,0,0,0,0,0,0,0,0,0,0,0,0,0,0,0,0,0,0,0,0,0,0,0,
2026-05-29,09:07:19.960,8.32,100,96,0,-0.139,6.00,25,0.995,76,0,0.023,99,100,1.08,-7.99,0.00,1,55.415800 12.873500,1,2026-05-29 09:07:19,0,0,-1024,0,-429,0,43,-22,322,0,0,-1,-1,-1,-1,-1,1,-1,-1,-1,-1,0,36,8,-1024,0,36,0,0,0,0,0,0,0,298,1024,0,0,0,0,0,0,0,0,0,0,0,0,0,0,0,0,0,0,0,0,0,0,0,0,0,0,0,0,0,0,0,0,0,0,0,0,0,0,0,0,0,0,0,0,0,0,0,0,0,0,
2026-05-29,09:07:20.070,8.32,100,95,0,-0.138,6.00,25,0.995,76,0,0.023,99,100,1.08,-7.99,0.00,1,55.415800 12.873500,1,2026-05-29 09:07:20,0,0,-1024,0,-429,1,43,-19,321,0,0,-1,-1,-1,-1,-1,1,-1,-1,-1,-1,0,36,8,-1024,0,36,0,0,0,0,0,0,0,298,1024,0,0,0,0,0,0,0,0,0,0,0,0,0,0,0,0,0,0,0,0,0,0,0,0,0,0,0,0,0,0,0,0,0,0,0,0,0,0,0,0,0,0,0,0,0,0,0,0,0,0,
2026-05-29,09:07:20.190,8.32,100,96,0,-0.138,5.97,25,0.988,79,0,0.023,99,100,1.08,-8.00,0.00,1,55.415800 12.873500,1,2026-05-29 09:07:20,0,0,-1023,0,-429,0,43,-22,321,0,0,-1,-1,-1,-1,-1,1,-1,-1,-1,-1,0,36,8,-1023,0,36,0,0,0,0,0,0,0,298,1024,0,0,0,0,0,0,0,0,0,0,0,0,0,0,0,0,0,0,0,0,0,0,0,0,0,0,0,0,0,0,0,0,0,0,0,0,0,0,0,0,0,0,0,0,0,0,0,0,0,0,
2026-05-29,09:07:20.310,8.32,100,97,0,-0.137,5.98,25,0.991,82,0,0.023,99,100,1.08,-8.01,0.00,1,55.415800 12.873500,1,2026-05-29 09:07:20,0,0,-1024,0,-430,1,42,-20,321,0,0,-1,-1,-1,-1,-1,1,-1,-1,-1,-1,0,36,8,-1024,0,36,0,0,0,0,0,0,0,297,1024,0,0,0,0,0,0,0,0,0,0,0,0,0,0,0,0,0,0,0,0,0,0,0,0,0,0,0,0,0,0,0,0,0,0,0,0,0,0,0,0,0,0,0,0,0,0,0,0,0,0,
2026-05-29,09:07:20.420,8.32,100,98,0,-0.139,5.98,25,0.995,84,0,0.022,98,100,1.08,-8.02,0.00,0,55.415800 12.873500,1,2026-05-29 09:07:20,0,0,-1024,0,-430,0,42,-19,322,0,0,-1,-1,-1,-1,-1,1,-1,-1,-1,-1,0,36,8,-1024,0,36,0,0,0,0,0,0,0,298,1024,0,0,0,0,0,0,0,0,0,0,0,0,0,0,0,0,0,0,0,0,0,0,0,0,0,0,0,0,0,0,0,0,0,0,0,0,0,0,0,0,0,0,0,0,0,0,0,0,0,0,
2026-05-29,09:07:20.530,8.32,100,98,0,-0.139,5.99,25,0.995,84,0,0.022,98,100,1.08,-8.02,0.00,0,55.415800 12.873500,1,2026-05-29 09:07:20,0,0,-1024,0,-430,1,42,-19,322,0,0,-1,-1,-1,-1,-1,1,-1,-1,-1,-1,0,36,8,-1024,0,36,0,0,0,0,0,0,0,297,1024,0,0,0,0,0,0,0,0,0,0,0,0,0,0,0,0,0,0,0,0,0,0,0,0,0,0,0,0,0,0,0,0,0,0,0,0,0,0,0,0,0,0,0,0,0,0,0,0,0,0,
2026-05-29,09:07:20.650,8.32,100,99,0,-0.139,5.99,25,0.992,84,0,0.023,98,100,1.08,-8.03,0.00,0,55.415800 12.873500,1,2026-05-29 09:07:20,0,0,-1024,0,-429,0,42,-19,322,0,0,-1,-1,-1,-1,-1,1,-1,-1,-1,-1,0,36,8,-1023,0,36,0,0,0,0,0,0,0,298,1024,0,0,0,0,0,0,0,0,0,0,0,0,0,0,0,0,0,0,0,0,0,0,0,0,0,0,0,0,0,0,0,0,0,0,0,0,0,0,0,0,0,0,0,0,0,0,0,0,0,0,
2026-05-29,09:07:20.760,8.32,100,99,0,-0.140,6.00,25,0.998,85,0,0.022,99,100,1.07,-8.04,0.00,0,55.415800 12.873500,1,2026-05-29 09:07:20,0,0,-1023,0,-429,0,42,-19,322,0,0,-1,-1,-1,-1,-1,1,-1,-1,-1,-1,0,36,8,-1023,0,36,0,0,0,0,0,0,0,298,1024,0,0,0,0,0,0,0,0,0,0,0,0,0,0,0,0,0,0,0,0,0,0,0,0,0,0,0,0,0,0,0,0,0,0,0,0,0,0,0,0,0,0,0,0,0,0,0,0,0,0,
2026-05-29,09:07:20.880,8.32,100,100,0,-0.140,6.00,25,0.998,88,0,0.022,99,100,1.07,-8.04,0.00,0,55.415800 12.873500,1,2026-05-29 09:07:20,0,0,-1024,0,-429,0,43,-19,321,0,0,-1,-1,-1,-1,-1,1,-1,-1,-1,-1,0,36,8,-1024,0,36,0,0,0,0,0,0,0,298,1024,0,0,0,0,0,0,0,0,0,0,0,0,0,0,0,0,0,0,0,0,0,0,0,0,0,0,0,0,0,0,0,0,0,0,0,0,0,0,0,0,0,0,0,0,0,0,0,0,0,0,
2026-05-29,09:07:21.010,8.32,100,100,0,-0.139,6.00,25,0.992,90,0,0.024,99,100,1.09,-8.05,0.00,0,55.415800 12.873500,3,2026-05-29 09:07:21,0,0,-1023,0,-429,0,42,-22,322,0,0,-1,-1,-1,-1,-1,1,-1,-1,-1,-1,0,36,8,-1023,0,36,0,0,0,0,0,0,0,297,1024,0,0,0,0,0,0,0,0,0,0,0,0,0,0,0,0,0,0,0,0,0,0,0,0,0,0,0,0,0,0,0,0,0,0,0,0,0,0,0,0,0,0,0,0,0,0,0,0,0,0,
2026-05-29,09:07:21.130,8.32,100,100,0,-0.139,6.00,25,0.996,91,0,0.025,99,100,1.08,-8.06,0.00,0,55.415800 12.873500,3,2026-05-29 09:07:21,0,0,-1024,0,-430,1,43,-19,322,0,0,-1,-1,-1,-1,-1,1,-1,-1,-1,-1,0,36,8,-1024,0,36,0,0,0,0,0,0,0,297,1024,0,0,0,0,0,0,0,0,0,0,0,0,0,0,0,0,0,0,0,0,0,0,0,0,0,0,0,0,0,0,0,0,0,0,0,0,0,0,0,0,0,0,0,0,0,0,0,0,0,0,
2026-05-29,09:07:21.250,8.33,100,100,0,-0.138,6.00,25,0.996,91,0,0.025,100,100,1.08,-8.06,0.00,0,55.415800 12.873500,3,2026-05-29 09:07:21,0,0,-1024,0,-429,0,42,-20,322,0,0,-1,-1,-1,-1,-1,1,-1,-1,-1,-1,0,36,8,-1024,0,36,0,0,0,0,0,0,0,298,1024,0,0,0,0,0,0,0,0,0,0,0,0,0,0,0,0,0,0,0,0,0,0,0,0,0,0,0,0,0,0,0,0,0,0,0,0,0,0,0,0,0,0,0,0,0,0,0,0,0,0,
2026-05-29,09:07:21.370,8.33,100,100,0,-0.138,6.00,25,0.990,91,0,0.024,100,100,1.08,-8.06,0.00,0,55.415800 12.873500,3,2026-05-29 09:07:21,0,0,-1024,0,-430,0,42,-19,322,0,0,-1,-1,-1,-1,-1,1,-1,-1,-1,-1,0,36,8,-1024,0,36,0,0,0,0,0,0,0,297,1024,0,0,0,0,0,0,0,0,0,0,0,0,0,0,0,0,0,0,0,0,0,0,0,0,0,0,0,0,0,0,0,0,0,0,0,0,0,0,0,0,0,0,0,0,0,0,0,0,0,0,
2026-05-29,09:07:21.490,8.33,100,100,0,-0.139,5.97,25,0.994,90,0,0.025,100,100,1.11,-8.07,0.00,0,55.415800 12.873500,3,2026-05-29 09:07:21,0,0,-1024,0,-430,0,43,-18,322,0,0,-1,-1,-1,-1,-1,1,-1,-1,-1,-1,0,36,8,-1023,0,36,0,0,0,0,0,0,0,297,1024,0,0,0,0,0,0,0,0,0,0,0,0,0,0,0,0,0,0,0,0,0,0,0,0,0,0,0,0,0,0,0,0,0,0,0,0,0,0,0,0,0,0,0,0,0,0,0,0,0,0,
2026-05-29,09:07:21.600,8.32,100,100,0,-0.140,5.98,25,0.995,89,0,0.024,100,100,1.11,-8.07,0.00,0,55.415800 12.873500,3,2026-05-29 09:07:21,0,0,-1024,0,-430,4,42,-20,321,0,0,-1,-1,-1,-1,-1,1,-1,-1,-1,-1,0,36,8,-1024,0,36,0,0,0,0,0,0,0,297,1024,0,0,0,0,0,0,0,0,0,0,0,0,0,0,0,0,0,0,0,0,0,0,0,0,0,0,0,0,0,0,0,0,0,0,0,0,0,0,0,0,0,0,0,0,0,0,0,0,0,0,
2026-05-29,09:07:21.720,8.32,100,100,0,-0.140,5.98,25,0.995,88,0,0.024,100,100,1.10,-8.08,0.00,0,55.415800 12.873500,3,2026-05-29 09:07:21,0,0,-1023,0,-430,0,42,-20,322,0,0,-1,-1,-1,-1,-1,1,-1,-1,-1,-1,0,36,8,-1023,0,36,0,0,0,0,0,0,0,297,1024,0,0,0,0,0,0,0,0,0,0,0,0,0,0,0,0,0,0,0,0,0,0,0,0,0,0,0,0,0,0,0,0,0,0,0,0,0,0,0,0,0,0,0,0,0,0,0,0,0,0,
2026-05-29,09:07:21.830,8.32,100,100,0,-0.139,5.99,25,0.995,87,0,0.027,100,100,1.08,-8.08,0.00,0,55.415800 12.873500,3,2026-05-29 09:07:21,0,0,-1024,0,-429,0,43,-20,321,0,0,-1,-1,-1,-1,-1,1,-1,-1,-1,-1,0,36,8,-1024,0,36,0,0,0,0,0,0,0,298,1024,0,0,0,0,0,0,0,0,0,0,0,0,0,0,0,0,0,0,0,0,0,0,0,0,0,0,0,0,0,0,0,0,0,0,0,0,0,0,0,0,0,0,0,0,0,0,0,0,0,0,
2026-05-29,09:07:21.960,8.32,100,100,0,-0.139,5.99,25,0.993,88,0,0.023,100,100,1.08,-8.09,0.00,0,55.415800 12.873500,3,2026-05-29 09:07:22,2,0,-1024,0,-429,1,42,-20,322,0,0,-1,-1,-1,-1,-1,1,-1,-1,-1,-1,0,36,8,-1024,1,36,0,0,0,0,0,0,0,297,1024,0,0,0,0,0,0,0,0,0,0,0,0,0,0,0,0,0,0,0,0,0,0,0,0,0,0,0,0,0,0,0,0,0,0,0,0,0,0,0,0,0,0,0,0,0,0,0,0,0,0,
2026-05-29,09:07:22.070,8.32,100,100,0,-0.139,5.97,25,0.993,88,0,0.023,100,100,1.08,-8.09,0.00,0,55.415800 12.873500,3,2026-05-29 09:07:22,0,0,-1024,0,-430,0,41,-21,321,0,0,-1,-1,-1,-1,-1,1,-1,-1,-1,-1,0,36,8,-1024,0,36,0,0,0,0,0,0,0,297,1024,0,0,0,0,0,0,0,0,0,0,0,0,0,0,0,0,0,0,0,0,0,0,0,0,0,0,0,0,0,0,0,0,0,0,0,0,0,0,0,0,0,0,0,0,0,0,0,0,0,0,
2026-05-29,09:07:22.190,8.32,100,100,0,-0.139,5.98,25,0.989,89,0,0.025,100,100,1.10,-8.09,0.00,0,55.415800 12.873500,3,2026-05-29 09:07:22,0,0,-1024,0,-429,0,43,-19,322,0,0,-1,-1,-1,-1,-1,1,-1,-1,-1,-1,0,36,8,-1024,0,36,0,0,0,0,0,0,0,298,1024,0,0,0,0,0,0,0,0,0,0,0,0,0,0,0,0,0,0,0,0,0,0,0,0,0,0,0,0,0,0,0,0,0,0,0,0,0,0,0,0,0,0,0,0,0,0,0,0,0,0,
2026-05-29,09:07:22.310,8.32,100,100,0,-0.138,5.98,25,0.991,89,0,0.024,100,100,1.10,-8.09,0.00,0,55.415800 12.873500,3,2026-05-29 09:07:22,0,0,-1024,0,-430,0,42,-19,322,0,0,-1,-1,-1,-1,-1,1,-1,-1,-1,-1,0,36,8,-1024,0,36,0,0,0,0,0,0,0,297,1024,0,0,0,0,0,0,0,0,0,0,0,0,0,0,0,0,0,0,0,0,0,0,0,0,0,0,0,0,0,0,0,0,0,0,0,0,0,0,0,0,0,0,0,0,0,0,0,0,0,0,
2026-05-29,09:07:22.430,8.33,100,100,0,-0.140,5.97,25,0.991,89,0,0.024,100,100,1.10,-8.09,0.00,0,55.415800 12.873500,3,2026-05-29 09:07:22,0,0,-1024,0,-430,0,42,-20,321,0,0,-1,-1,-1,-1,-1,1,-1,-1,-1,-1,0,36,8,-1024,0,36,0,0,0,0,0,0,0,297,1024,0,0,0,0,0,0,0,0,0,0,0,0,0,0,0,0,0,0,0,0,0,0,0,0,0,0,0,0,0,0,0,0,0,0,0,0,0,0,0,0,0,0,0,0,0,0,0,0,0,0,
2026-05-29,09:07:22.560,8.33,100,100,0,-0.140,5.98,25,0.990,90,0,0.023,100,100,1.09,-8.10,0.00,0,55.415800 12.873500,3,2026-05-29 09:07:22,0,0,-1024,0,-429,0,43,-19,322,0,0,-1,-1,-1,-1,-1,1,-1,-1,-1,-1,0,36,8,-1024,0,36,0,0,0,0,0,0,0,297,1024,0,0,0,0,0,0,0,0,0,0,0,0,0,0,0,0,0,0,0,0,0,0,0,0,0,0,0,0,0,0,0,0,0,0,0,0,0,0,0,0,0,0,0,0,0,0,0,0,0,0,
2026-05-29,09:07:22.680,8.33,100,100,0,-0.139,5.99,25,1.001,91,0,0.022,100,100,1.10,-8.10,0.00,0,55.415800 12.873500,3,2026-05-29 09:07:22,0,0,-1023,0,-430,0,42,-19,322,0,0,-1,-1,-1,-1,-1,1,-1,-1,-1,-1,0,36,8,-1023,0,36,0,0,0,0,0,0,0,298,1024,0,0,0,0,0,0,0,0,0,0,0,0,0,0,0,0,0,0,0,0,0,0,0,0,0,0,0,0,0,0,0,0,0,0,0,0,0,0,0,0,0,0,0,0,0,0,0,0,0,0,
2026-05-29,09:07:22.790,8.32,100,100,0,-0.138,5.99,25,0.992,92,0,0.021,100,100,1.08,-8.10,0.00,0,55.415800 12.873500,3,2026-05-29 09:07:22,0,0,-1024,0,-430,0,43,-20,322,0,0,-1,-1,-1,-1,-1,1,-1,-1,-1,-1,0,36,8,-1024,0,36,0,0,0,0,0,0,0,297,1024,0,0,0,0,0,0,0,0,0,0,0,0,0,0,0,0,0,0,0,0,0,0,0,0,0,0,0,0,0,0,0,0,0,0,0,0,0,0,0,0,0,0,0,0,0,0,0,0,0,0,
2026-05-29,09:07:22.930,8.32,100,100,0,-0.138,5.99,25,0.992,93,0,0.021,100,100,1.08,-8.10,0.00,0,55.415800 12.873500,3,2026-05-29 09:07:22,0,0,-1024,0,-430,0,41,-19,322,0,0,-1,-1,-1,-1,-1,1,-1,-1,-1,-1,0,36,8,-1024,0,36,0,0,0,0,0,0,0,297,1024,0,0,0,0,0,0,0,0,0,0,0,0,0,0,0,0,0,0,0,0,0,0,0,0,0,0,0,0,0,0,0,0,0,0,0,0,0,0,0,0,0,0,0,0,0,0,0,0,0,0,
2026-05-29,09:07:23.060,8.32,100,100,0,-0.139,6.00,25,0.996,94,0,0.023,100,100,1.09,-8.11,0.00,0,55.415800 12.873500,3,2026-05-29 09:07:23,0,0,-1024,0,-430,0,42,-19,322,0,0,-1,-1,-1,-1,-1,1,-1,-1,-1,-1,0,36,8,-1024,0,36,0,0,0,0,0,0,0,297,1024,0,0,0,0,0,0,0,0,0,0,0,0,0,0,0,0,0,0,0,0,0,0,0,0,0,0,0,0,0,0,0,0,0,0,0,0,0,0,0,0,0,0,0,0,0,0,0,0,0,0,
2026-05-29,09:07:23.170,8.32,100,100,0,-0.138,6.00,25,0.995,93,0,0.023,100,100,1.08,-8.11,0.00,0,55.415800 12.873500,3,2026-05-29 09:07:23,0,0,-1024,0,-429,0,43,-19,321,0,0,-1,-1,-1,-1,-1,1,-1,-1,-1,-1,0,36,8,-1024,0,36,0,0,0,0,0,0,0,298,1024,0,0,0,0,0,0,0,0,0,0,0,0,0,0,0,0,0,0,0,0,0,0,0,0,0,0,0,0,0,0,0,0,0,0,0,0,0,0,0,0,0,0,0,0,0,0,0,0,0,0,
2026-05-29,09:07:23.290,8.33,100,100,0,-0.139,5.97,25,0.996,94,0,0.025,100,100,1.09,-8.11,0.00,0,55.415800 12.873500,3,2026-05-29 09:07:23,0,0,-1024,0,-430,2,42,-18,322,0,0,-1,-1,-1,-1,-1,1,-1,-1,-1,-1,0,36,8,-1024,0,36,0,0,0,0,0,0,0,297,1024,0,0,0,0,0,0,0,0,0,0,0,0,0,0,0,0,0,0,0,0,0,0,0,0,0,0,0,0,0,0,0,0,0,0,0,0,0,0,0,0,0,0,0,0,0,0,0,0,0,0,
2026-05-29,09:07:23.400,8.33,100,100,0,-0.139,5.98,25,0.996,93,0,0.025,100,100,1.09,-8.11,0.00,0,55.415800 12.873500,3,2026-05-29 09:07:23,0,0,-1024,0,-429,0,42,-22,322,0,0,-1,-1,-1,-1,-1,1,-1,-1,-1,-1,0,36,8,-1024,0,36,0,0,0,0,0,0,0,298,1024,0,0,0,0,0,0,0,0,0,0,0,0,0,0,0,0,0,0,0,0,0,0,0,0,0,0,0,0,0,0,0,0,0,0,0,0,0,0,0,0,0,0,0,0,0,0,0,0,0,0,
2026-05-29,09:07:23.510,8.33,100,100,0,-0.139,5.99,25,0.997,92,0,0.024,100,100,1.07,-8.12,0.00,0,55.415800 12.873500,3,2026-05-29 09:07:23,0,0,-1024,0,-430,0,42,-20,322,0,0,-1,-1,-1,-1,-1,1,-1,-1,-1,-1,0,36,8,-1024,0,36,0,0,0,0,0,0,0,297,1024,0,0,0,0,0,0,0,0,0,0,0,0,0,0,0,0,0,0,0,0,0,0,0,0,0,0,0,0,0,0,0,0,0,0,0,0,0,0,0,0,0,0,0,0,0,0,0,0,0,0,
2026-05-29,09:07:23.630,8.33,100,100,0,-0.139,5.97,25,0.991,93,0,0.021,100,100,1.05,-8.12,0.00,0,55.415800 12.873500,3,2026-05-29 09:07:23,0,0,-1024,0,-430,0,43,-20,321,0,0,-1,-1,-1,-1,-1,1,-1,-1,-1,-1,0,36,8,-1024,0,36,0,0,0,0,0,0,0,297,1024,0,0,0,0,0,0,0,0,0,0,0,0,0,0,0,0,0,0,0,0,0,0,0,0,0,0,0,0,0,0,0,0,0,0,0,0,0,0,0,0,0,0,0,0,0,0,0,0,0,0,
2026-05-29,09:07:23.750,8.33,100,100,0,-0.139,5.97,25,0.991,94,0,0.021,100,100,1.05,-8.12,0.00,0,55.415800 12.873500,3,2026-05-29 09:07:23,0,0,-1023,0,-430,0,43,-21,322,0,0,-1,-1,-1,-1,-1,1,-1,-1,-1,-1,0,36,8,-1023,0,36,0,0,0,0,0,0,0,297,1024,0,0,0,0,0,0,0,0,0,0,0,0,0,0,0,0,0,0,0,0,0,0,0,0,0,0,0,0,0,0,0,0,0,0,0,0,0,0,0,0,0,0,0,0,0,0,0,0,0,0,
2026-05-29,09:07:23.860,8.32,100,100,0,-0.139,5.98,25,0.996,95,0,0.021,100,100,1.05,-8.12,0.00,0,55.415800 12.873500,3,2026-05-29 09:07:23,0,0,-1024,0,-430,0,43,-20,322,0,0,-1,-1,-1,-1,-1,1,-1,-1,-1,-1,0,36,8,-1024,0,36,0,0,0,0,0,0,0,297,1024,0,0,0,0,0,0,0,0,0,0,0,0,0,0,0,0,0,0,0,0,0,0,0,0,0,0,0,0,0,0,0,0,0,0,0,0,0,0,0,0,0,0,0,0,0,0,0,0,0,0,
2026-05-29,09:07:23.980,8.33,100,100,0,-0.139,5.99,25,0.994,96,0,0.020,100,100,1.07,-8.12,0.00,0,55.415800 12.873500,3,2026-05-29 09:07:23,0,0,-1024,0,-430,0,42,-21,322,0,0,-1,-1,-1,-1,-1,1,-1,-1,-1,-1,0,36,8,-1024,0,36,0,0,0,0,0,0,0,297,1024,0,0,0,0,0,0,0,0,0,0,0,0,0,0,0,0,0,0,0,0,0,0,0,0,0,0,0,0,0,0,0,0,0,0,0,0,0,0,0,0,0,0,0,0,0,0,0,0,0,0,
2026-05-29,09:07:24.100,8.32,100,100,0,-0.139,5.99,25,0.994,96,0,0.020,100,100,1.07,-8.12,0.00,1,55.415800 12.873500,3,2026-05-29 09:07:24,0,0,-1024,0,-430,0,42,-20,322,0,0,-1,-1,-1,-1,-1,1,-1,-1,-1,-1,0,36,8,-1024,0,36,0,0,0,0,0,0,0,297,1024,0,0,0,0,0,0,0,0,0,0,0,0,0,0,0,0,0,0,0,0,0,0,0,0,0,0,0,0,0,0,0,0,0,0,0,0,0,0,0,0,0,0,0,0,0,0,0,0,0,0,
2026-05-29,09:07:24.210,8.32,100,100,0,-0.137,5.99,25,0.996,98,0,0.022,100,100,1.07,-8.12,0.00,1,55.415800 12.873500,3,2026-05-29 09:07:24,0,0,-1024,0,-430,0,41,-18,322,0,0,-1,-1,-1,-1,-1,1,-1,-1,-1,-1,0,36,8,-1024,0,36,0,0,0,0,0,0,0,297,1024,0,0,0,0,0,0,0,0,0,0,0,0,0,0,0,0,0,0,0,0,0,0,0,0,0,0,0,0,0,0,0,0,0,0,0,0,0,0,0,0,0,0,0,0,0,0,0,0,0,0,
2026-05-29,09:07:24.340,8.32,100,100,0,-0.137,6.00,25,0.990,98,0,0.021,100,100,1.11,-8.12,0.00,1,55.415800 12.873500,3,2026-05-29 09:07:24,0,0,-1024,0,-430,0,42,-19,322,0,0,-1,-1,-1,-1,-1,1,-1,-1,-1,-1,0,36,8,-1024,0,36,0,0,0,0,0,0,0,297,1024,0,0,0,0,0,0,0,0,0,0,0,0,0,0,0,0,0,0,0,0,0,0,0,0,0,0,0,0,0,0,0,0,0,0,0,0,0,0,0,0,0,0,0,0,0,0,0,0,0,0,
2026-05-29,09:07:24.460,8.32,100,100,0,-0.138,6.00,25,0.988,97,0,0.021,100,100,1.11,-8.12,0.00,1,55.415800 12.873500,3,2026-05-29 09:07:24,0,0,-1024,0,-430,0,44,-19,322,0,0,-1,-1,-1,-1,-1,1,-1,-1,-1,-1,0,36,8,-1024,0,36,0,0,0,0,0,0,0,297,1024,0,0,0,0,0,0,0,0,0,0,0,0,0,0,0,0,0,0,0,0,0,0,0,0,0,0,0,0,0,0,0,0,0,0,0,0,0,0,0,0,0,0,0,0,0,0,0,0,0,0,
2026-05-29,09:07:24.570,8.32,100,100,0,-0.138,6.00,25,0.988,98,0,0.023,100,100,1.11,-8.13,0.00,1,55.415800 12.873500,3,2026-05-29 09:07:24,0,0,-1024,0,-430,1,43,-19,322,0,0,-1,-1,-1,-1,-1,1,-1,-1,-1,-1,0,36,8,-1024,0,36,0,0,0,0,0,0,0,297,1024,0,0,0,0,0,0,0,0,0,0,0,0,0,0,0,0,0,0,0,0,0,0,0,0,0,0,0,0,0,0,0,0,0,0,0,0,0,0,0,0,0,0,0,0,0,0,0,0,0,0,
2026-05-29,09:07:24.690,8.32,100,100,0,-0.138,6.00,25,0.983,98,0,0.023,100,100,1.11,-8.13,0.00,1,55.415800 12.873500,3,2026-05-29 09:07:24,0,0,-1024,0,-430,0,42,-20,322,0,0,-1,-1,-1,-1,-1,1,-1,-1,-1,-1,0,36,8,-1024,0,36,0,0,0,0,0,0,0,297,1024,0,0,0,0,0,0,0,0,0,0,0,0,0,0,0,0,0,0,0,0,0,0,0,0,0,0,0,0,0,0,0,0,0,0,0,0,0,0,0,0,0,0,0,0,0,0,0,0,0,0,
2026-05-29,09:07:24.810,8.32,100,100,0,-0.139,6.00,25,0.997,98,0,0.026,100,100,1.11,-8.13,0.00,1,55.415800 12.873500,3,2026-05-29 09:07:24,0,0,-1024,0,-430,0,42,-18,322,0,0,-1,-1,-1,-1,-1,1,-1,-1,-1,-1,0,36,8,-1024,0,36,0,0,0,0,0,0,0,297,1024,0,0,0,0,0,0,0,0,0,0,0,0,0,0,0,0,0,0,0,0,0,0,0,0,0,0,0,0,0,0,0,0,0,0,0,0,0,0,0,0,0,0,0,0,0,0,0,0,0,0,
2026-05-29,09:07:24.920,8.32,100,100,0,-0.139,6.00,25,0.997,99,0,0.026,100,100,1.11,-8.13,0.00,1,55.415800 12.873500,3,2026-05-29 09:07:24,0,0,-1024,0,-429,1,42,-18,322,0,0,-1,-1,-1,-1,-1,1,-1,-1,-1,-1,0,36,8,-1024,0,36,0,0,0,0,0,0,0,298,1024,0,0,0,0,0,0,0,0,0,0,0,0,0,0,0,0,0,0,0,0,0,0,0,0,0,0,0,0,0,0,0,0,0,0,0,0,0,0,0,0,0,0,0,0,0,0,0,0,0,0,
2026-05-29,09:07:25.030,8.32,100,100,0,-0.138,6.00,25,0.992,99,0,0.023,100,100,1.10,-8.13,0.00,0,55.415800 12.873500,2,2026-05-29 09:07:25,0,0,-1023,0,-430,0,42,-19,321,0,0,-1,-1,-1,-1,-1,1,-1,-1,-1,-1,0,36,8,-1023,0,36,0,0,0,0,0,0,0,297,1024,0,0,0,0,0,0,0,0,0,0,0,0,0,0,0,0,0,0,0,0,0,0,0,0,0,0,0,0,0,0,0,0,0,0,0,0,0,0,0,0,0,0,0,0,0,0,0,0,0,0,
2026-05-29,09:07:25.140,8.32,100,100,0,-0.138,6.00,25,0.992,99,0,0.023,100,100,1.10,-8.13,0.00,0,55.415800 12.873500,2,2026-05-29 09:07:25,0,0,-1024,0,-430,0,42,-21,322,0,0,-1,-1,-1,-1,-1,1,-1,-1,-1,-1,0,36,8,-1024,0,36,0,0,0,0,0,0,0,297,1024,0,0,0,0,0,0,0,0,0,0,0,0,0,0,0,0,0,0,0,0,0,0,0,0,0,0,0,0,0,0,0,0,0,0,0,0,0,0,0,0,0,0,0,0,0,0,0,0,0,0,
2026-05-29,09:07:25.260,8.32,100,100,0,-0.138,6.00,25,0.991,99,0,0.022,100,100,1.08,-8.13,0.00,0,55.415800 12.873500,2,2026-05-29 09:07:25,0,0,-1024,0,-430,1,43,-20,322,0,0,-1,-1,-1,-1,-1,1,-1,-1,-1,-1,0,36,8,-1024,0,36,0,0,0,0,0,0,0,297,1024,0,0,0,0,0,0,0,0,0,0,0,0,0,0,0,0,0,0,0,0,0,0,0,0,0,0,0,0,0,0,0,0,0,0,0,0,0,0,0,0,0,0,0,0,0,0,0,0,0,0,
2026-05-29,09:07:25.400,8.32,100,100,0,-0.139,6.00,25,0.992,98,0,0.025,100,100,1.10,-8.13,0.00,0,55.415800 12.873500,2,2026-05-29 09:07:25,0,0,-1024,0,-429,0,42,-18,321,0,0,-1,-1,-1,-1,-1,1,-1,-1,-1,-1,0,36,8,-1024,0,36,0,0,0,0,0,0,0,298,1024,0,0,0,0,0,0,0,0,0,0,0,0,0,0,0,0,0,0,0,0,0,0,0,0,0,0,0,0,0,0,0,0,0,0,0,0,0,0,0,0,0,0,0,0,0,0,0,0,0,0,
2026-05-29,09:07:25.520,8.32,100,100,0,-0.137,5.97,25,0.990,98,0,0.024,100,100,1.10,-8.13,0.00,0,55.415800 12.873500,2,2026-05-29 09:07:25,0,0,-1024,0,-429,0,42,-18,322,0,0,-1,-1,-1,-1,-1,1,-1,-1,-1,-1,0,36,8,-1024,0,36,0,0,0,0,0,0,0,298,1024,0,0,0,0,0,0,0,0,0,0,0,0,0,0,0,0,0,0,0,0,0,0,0,0,0,0,0,0,0,0,0,0,0,0,0,0,0,0,0,0,0,0,0,0,0,0,0,0,0,0,
2026-05-29,09:07:25.640,8.32,100,100,0,-0.140,5.98,25,0.990,99,0,0.024,100,100,1.10,-8.13,0.00,0,55.415800 12.873500,2,2026-05-29 09:07:25,0,0,-1023,0,-429,1,41,-20,322,0,0,-1,-1,-1,-1,-1,1,-1,-1,-1,-1,0,36,8,-1024,0,36,0,0,0,0,0,0,0,298,1024,0,0,0,0,0,0,0,0,0,0,0,0,0,0,0,0,0,0,0,0,0,0,0,0,0,0,0,0,0,0,0,0,0,0,0,0,0,0,0,0,0,0,0,0,0,0,0,0,0,0,
2026-05-29,09:07:25.750,8.32,100,100,0,-0.140,5.98,25,0.991,98,0,0.022,100,100,1.09,-8.13,0.00,0,55.415800 12.873500,2,2026-05-29 09:07:25,0,0,-1024,0,-430,0,43,-19,322,0,0,-1,-1,-1,-1,-1,1,-1,-1,-1,-1,0,36,8,-1024,0,36,0,0,0,0,0,0,0,297,1024,0,0,0,0,0,0,0,0,0,0,0,0,0,0,0,0,0,0,0,0,0,0,0,0,0,0,0,0,0,0,0,0,0,0,0,0,0,0,0,0,0,0,0,0,0,0,0,0,0,0,
2026-05-29,09:07:25.870,8.32,100,100,0,-0.137,5.97,25,0.989,99,0,0.024,100,100,1.10,-8.13,0.00,0,55.415800 12.873500,2,2026-05-29 09:07:25,0,0,-1023,0,-429,0,42,-19,321,0,0,-1,-1,-1,-1,-1,1,-1,-1,-1,-1,0,36,8,-1023,0,36,0,0,0,0,0,0,0,298,1024,0,0,0,0,0,0,0,0,0,0,0,0,0,0,0,0,0,0,0,0,0,0,0,0,0,0,0,0,0,0,0,0,0,0,0,0,0,0,0,0,0,0,0,0,0,0,0,0,0,0,
2026-05-29,09:07:25.990,8.32,100,100,0,-0.142,5.98,25,0.989,99,0,0.029,100,100,1.09,-8.13,0.00,0,55.415800 12.873500,4,2026-05-29 09:07:26,0,0,-1024,0,-429,0,42,-17,322,0,0,-1,-1,-1,-1,-1,1,-1,-1,-1,-1,0,36,8,-1023,0,36,0,0,0,0,0,0,0,298,1024,0,0,0,0,0,0,0,0,0,0,0,0,0,0,0,0,0,0,0,0,0,0,0,0,0,0,0,0,0,0,0,0,0,0,0,0,0,0,0,0,0,0,0,0,0,0,0,0,0,0,
2026-05-29,09:07:26.110,8.32,100,100,0,-0.142,5.99,25,0.989,100,0,0.029,100,100,1.09,-8.13,0.00,0,55.415800 12.873500,4,2026-05-29 09:07:26,0,0,-1024,0,-429,0,43,-20,321,0,0,-1,-1,-1,-1,-1,1,-1,-1,-1,-1,0,36,8,-1024,0,36,0,0,0,0,0,0,0,298,1024,0,0,0,0,0,0,0,0,0,0,0,0,0,0,0,0,0,0,0,0,0,0,0,0,0,0,0,0,0,0,0,0,0,0,0,0,0,0,0,0,0,0,0,0,0,0,0,0,0,0,
2026-05-29,09:07:26.220,8.32,100,100,0,-0.080,5.99,25,0.997,100,0,0.015,100,100,1.05,-8.13,0.00,0,55.415800 12.873500,4,2026-05-29 09:07:26,0,0,-1024,0,-430,0,42,-19,322,0,0,-1,-1,-1,-1,-1,1,-1,-1,-1,-1,0,36,8,-1024,0,36,0,0,0,0,0,0,0,297,1024,0,0,0,0,0,0,0,0,0,0,0,0,0,0,0,0,0,0,0,0,0,0,0,0,0,0,0,0,0,0,0,0,0,0,0,0,0,0,0,0,0,0,0,0,0,0,0,0,0,0,
2026-05-29,09:07:26.340,8.32,100,100,0,-0.156,5.97,25,0.992,100,0,0.023,100,100,1.07,-8.10,0.00,0,55.415800 12.873500,4,2026-05-29 09:07:26,0,0,-1024,0,-429,1,42,-18,322,0,0,-1,-1,-1,-1,-1,1,-1,-1,-1,-1,0,36,8,-1024,0,36,0,0,0,0,0,0,0,297,1024,0,0,0,0,0,0,0,0,0,0,0,0,0,0,0,0,0,0,0,0,0,0,0,0,0,0,0,0,0,0,0,0,0,0,0,0,0,0,0,0,0,0,0,0,0,0,0,0,0,0,
2026-05-29,09:07:26.460,8.32,100,100,0,-0.156,5.98,25,0.992,100,0,0.023,100,100,1.07,-8.10,0.00,0,55.415800 12.873500,4,2026-05-29 09:07:26,0,0,-1024,0,-430,0,43,-20,322,0,0,-1,-1,-1,-1,-1,1,-1,-1,-1,-1,0,36,8,-1024,0,36,0,0,0,0,0,0,0,297,1024,0,0,0,0,0,0,0,0,0,0,0,0,0,0,0,0,0,0,0,0,0,0,0,0,0,0,0,0,0,0,0,0,0,0,0,0,0,0,0,0,0,0,0,0,0,0,0,0,0,0,
2026-05-29,09:07:26.580,8.32,100,100,0,-0.094,5.99,25,1.000,100,0,0.018,100,100,1.07,-8.10,0.00,0,55.415800 12.873500,4,2026-05-29 09:07:26,0,0,-1024,0,-430,0,42,-19,322,0,0,-1,-1,-1,-1,-1,1,-1,-1,-1,-1,0,36,8,-1024,0,36,0,0,0,0,0,0,0,297,1024,0,0,0,0,0,0,0,0,0,0,0,0,0,0,0,0,0,0,0,0,0,0,0,0,0,0,0,0,0,0,0,0,0,0,0,0,0,0,0,0,0,0,0,0,0,0,0,0,0,0,
2026-05-29,09:07:26.690,8.32,100,100,0,-0.099,5.99,25,0.996,100,0,0.027,100,100,1.10,-8.11,0.00,0,55.415800 12.873500,4,2026-05-29 09:07:26,0,0,-1024,0,-429,0,42,-19,322,0,0,-1,-1,-1,-1,-1,1,-1,-1,-1,-1,0,36,8,-1024,0,36,0,0,0,0,0,0,0,298,1024,0,0,0,0,0,0,0,0,0,0,0,0,0,0,0,0,0,0,0,0,0,0,0,0,0,0,0,0,0,0,0,0,0,0,0,0,0,0,0,0,0,0,0,0,0,0,0,0,0,0,
2026-05-29,09:07:26.810,8.32,100,100,0,-0.099,5.99,25,0.996,100,0,0.027,100,100,1.10,-8.11,0.00,0,55.415800 12.873500,4,2026-05-29 09:07:26,0,0,-1024,0,-430,2,42,-19,322,0,0,-1,-1,-1,-1,-1,1,-1,-1,-1,-1,0,36,8,-1024,0,36,0,0,0,0,0,0,0,297,1024,0,0,0,0,0,0,0,0,0,0,0,0,0,0,0,0,0,0,0,0,0,0,0,0,0,0,0,0,0,0,0,0,0,0,0,0,0,0,0,0,0,0,0,0,0,0,0,0,0,0,
2026-05-29,09:07:26.920,8.32,100,100,0,-0.087,5.99,25,0.946,100,0,0.024,100,100,1.05,-8.12,0.00,0,55.415800 12.873500,4,2026-05-29 09:07:26,0,0,-1024,0,-429,1,42,-19,322,0,0,-1,-1,-1,-1,-1,1,-1,-1,-1,-1,0,36,8,-1024,0,36,0,0,0,0,0,0,0,298,1024,0,0,0,0,0,0,0,0,0,0,0,0,0,0,0,0,0,0,0,0,0,0,0,0,0,0,0,0,0,0,0,0,0,0,0,0,0,0,0,0,0,0,0,0,0,0,0,0,0,0,
2026-05-29,09:07:27.030,8.32,100,100,0,-0.109,6.00,25,0.984,100,0,0.027,100,100,1.08,-8.12,0.00,0,55.415800 12.873500,4,2026-05-29 09:07:27,0,0,-1023,0,-429,1,42,-19,321,0,0,-1,-1,-1,-1,-1,1,-1,-1,-1,-1,0,36,8,-1024,0,36,0,0,0,0,0,0,0,297,1024,0,0,0,0,0,0,0,0,0,0,0,0,0,0,0,0,0,0,0,0,0,0,0,0,0,0,0,0,0,0,0,0,0,0,0,0,0,0,0,0,0,0,0,0,0,0,0,0,0,0,
2026-05-29,09:07:27.140,8.32,100,100,0,-0.109,6.00,25,0.984,100,0,0.027,100,100,1.08,-8.12,0.00,0,55.415800 12.873500,4,2026-05-29 09:07:27,0,0,-1024,0,-430,0,43,-18,322,0,0,-1,-1,-1,-1,-1,1,-1,-1,-1,-1,0,36,8,-1024,0,36,0,0,0,0,0,0,0,297,1024,0,0,0,0,0,0,0,0,0,0,0,0,0,0,0,0,0,0,0,0,0,0,0,0,0,0,0,0,0,0,0,0,0,0,0,0,0,0,0,0,0,0,0,0,0,0,0,0,0,0,
2026-05-29,09:07:27.260,8.32,100,100,0,-0.136,5.98,25,0.962,100,0,0.053,99,100,1.08,-8.16,0.00,0,55.415800 12.873500,4,2026-05-29 09:07:27,0,0,-1024,0,-429,0,42,-20,322,0,0,-1,-1,-1,-1,-1,1,-1,-1,-1,-1,0,36,8,-1024,0,36,0,0,0,0,0,0,0,298,1024,0,0,0,0,0,0,0,0,0,0,0,0,0,0,0,0,0,0,0,0,0,0,0,0,0,0,0,0,0,0,0,0,0,0,0,0,0,0,0,0,0,0,0,0,0,0,0,0,0,0,
2026-05-29,09:07:27.370,8.32,100,100,0,0.022,5.98,25,0.892,100,0,0.014,99,100,0.96,-8.26,0.00,0,55.415800 12.873500,4,2026-05-29 09:07:27,0,0,-1024,0,-429,3,42,-21,321,0,0,-1,-1,-1,-1,-1,1,-1,-1,-1,-1,0,36,8,-1023,0,36,0,0,0,0,0,0,0,298,1024,0,0,0,0,0,0,0,0,0,0,0,0,0,0,0,0,0,0,0,0,0,0,0,0,0,0,0,0,0,0,0,0,0,0,0,0,0,0,0,0,0,0,0,0,0,0,0,0,0,0,
2026-05-29,09:07:27.480,8.32,100,100,0,0.022,5.99,25,0.892,100,0,0.014,99,100,0.96,-8.26,0.00,0,55.415800 12.873500,4,2026-05-29 09:07:27,0,0,-1024,0,-430,0,42,-19,321,0,0,-1,-1,-1,-1,-1,1,-1,-1,-1,-1,0,36,8,-1024,0,36,0,0,0,0,0,0,0,297,1024,0,0,0,0,0,0,0,0,0,0,0,0,0,0,0,0,0,0,0,0,0,0,0,0,0,0,0,0,0,0,0,0,0,0,0,0,0,0,0,0,0,0,0,0,0,0,0,0,0,0,
2026-05-29,09:07:27.590,8.32,100,100,0,-0.130,5.97,25,0.945,100,0,0.008,99,100,0.89,-8.21,0.00,0,55.415800 12.873500,4,2026-05-29 09:07:27,0,0,-1024,0,-429,0,43,-18,322,0,0,-1,-1,-1,-1,-1,1,-1,-1,-1,-1,0,36,8,-1024,0,36,0,0,0,0,0,0,0,298,1024,0,0,0,0,0,0,0,0,0,0,0,0,0,0,0,0,0,0,0,0,0,0,0,0,0,0,0,0,0,0,0,0,0,0,0,0,0,0,0,0,0,0,0,0,0,0,0,0,0,0,
2026-05-29,09:07:27.710,8.32,100,100,0,-0.115,5.95,25,0.960,99,0,-0.020,99,100,1.00,-8.10,0.00,0,55.415800 12.873500,4,2026-05-29 09:07:27,0,0,-1024,0,-430,1,43,-20,321,0,0,-1,-1,-1,-1,-1,1,-1,-1,-1,-1,0,36,8,-1023,0,36,0,0,0,0,0,0,0,297,1024,0,0,0,0,0,0,0,0,0,0,0,0,0,0,0,0,0,0,0,0,0,0,0,0,0,0,0,0,0,0,0,0,0,0,0,0,0,0,0,0,0,0,0,0,0,0,0,0,0,0,
2026-05-29,09:07:27.820,8.32,100,100,0,-0.115,5.96,25,0.960,99,0,-0.020,99,100,1.00,-8.10,0.00,0,55.415800 12.873500,4,2026-05-29 09:07:27,0,0,-1024,0,-429,0,42,-21,322,0,0,-1,-1,-1,-1,-1,1,-1,-1,-1,-1,0,36,8,-1024,0,36,0,0,0,0,0,0,0,298,1024,0,0,0,0,0,0,0,0,0,0,0,0,0,0,0,0,0,0,0,0,0,0,0,0,0,0,0,0,0,0,0,0,0,0,0,0,0,0,0,0,0,0,0,0,0,0,0,0,0,0,
2026-05-29,09:07:27.940,8.32,100,100,0,-0.226,5.95,25,1.139,99,0,0.034,99,100,0.95,-8.25,0.00,0,55.415800 12.873500,5,2026-05-29 09:07:27,0,0,-1024,0,-430,1,41,-22,322,0,0,-1,-1,-1,-1,-1,1,-1,-1,-1,-1,0,36,8,-1024,0,36,0,0,0,0,0,0,0,297,1024,0,0,0,0,0,0,0,0,0,0,0,0,0,0,0,0,0,0,0,0,0,0,0,0,0,0,0,0,0,0,0,0,0,0,0,0,0,0,0,0,0,0,0,0,0,0,0,0,0,0,
2026-05-29,09:07:28.060,8.32,100,100,0,-0.138,5.97,25,0.911,100,0,-0.001,100,100,0.83,-8.09,0.00,0,55.415800 12.873500,5,2026-05-29 09:07:28,0,0,-1024,0,-429,0,42,-19,322,0,0,-1,-1,-1,-1,-1,1,-1,-1,-1,-1,0,36,8,-1024,0,36,0,0,0,0,0,0,0,298,1024,0,0,0,0,0,0,0,0,0,0,0,0,0,0,0,0,0,0,0,0,0,0,0,0,0,0,0,0,0,0,0,0,0,0,0,0,0,0,0,0,0,0,0,0,0,0,0,0,0,0,
2026-05-29,09:07:28.170,8.32,100,100,0,-0.138,5.95,25,0.911,100,0,-0.001,100,100,0.83,-8.09,0.00,0,55.415800 12.873500,5,2026-05-29 09:07:28,0,0,-1024,0,-429,0,42,-19,322,0,0,-1,-1,-1,-1,-1,1,-1,-1,-1,-1,0,36,8,-1023,0,36,0,0,0,0,0,0,0,298,1024,0,0,0,0,0,0,0,0,0,0,0,0,0,0,0,0,0,0,0,0,0,0,0,0,0,0,0,0,0,0,0,0,0,0,0,0,0,0,0,0,0,0,0,0,0,0,0,0,0,0,
2026-05-29,09:07:28.290,8.32,100,100,0,-0.135,5.96,25,0.981,100,0,0.044,100,100,0.91,-8.11,0.00,0,55.415800 12.873500,5,2026-05-29 09:07:28,0,0,-1024,0,-429,0,43,-19,322,0,0,-1,-1,-1,-1,-1,1,-1,-1,-1,-1,0,36,8,-1024,0,36,0,0,0,0,0,0,0,298,1024,0,0,0,0,0,0,0,0,0,0,0,0,0,0,0,0,0,0,0,0,0,0,0,0,0,0,0,0,0,0,0,0,0,0,0,0,0,0,0,0,0,0,0,0,0,0,0,0,0,0,
2026-05-29,09:07:28.410,8.32,100,100,0,-0.131,5.97,25,0.992,100,0,-0.001,100,100,0.96,-8.12,0.00,0,55.415800 12.873500,5,2026-05-29 09:07:28,0,0,-1024,0,-429,0,41,-19,322,0,0,-1,-1,-1,-1,-1,1,-1,-1,-1,-1,0,36,8,-1024,0,36,0,0,0,0,0,0,0,298,1024,0,0,0,0,0,0,0,0,0,0,0,0,0,0,0,0,0,0,0,0,0,0,0,0,0,0,0,0,0,0,0,0,0,0,0,0,0,0,0,0,0,0,0,0,0,0,0,0,0,0,
2026-05-29,09:07:28.530,8.32,100,100,0,-0.137,5.98,25,0.988,100,0,0.008,100,100,0.96,-8.12,0.00,0,55.415800 12.873500,5,2026-05-29 09:07:28,0,0,-1023,0,-430,1,42,-17,322,0,0,-1,-1,-1,-1,-1,1,-1,-1,-1,-1,0,36,8,-1023,0,36,0,0,0,0,0,0,0,297,1024,0,0,0,0,0,0,0,0,0,0,0,0,0,0,0,0,0,0,0,0,0,0,0,0,0,0,0,0,0,0,0,0,0,0,0,0,0,0,0,0,0,0,0,0,0,0,0,0,0,0,
2026-05-29,09:07:28.650,8.32,100,100,0,-0.137,5.99,25,0.988,100,0,0.008,100,100,0.97,-8.13,0.00,0,55.415800 12.873500,5,2026-05-29 09:07:28,0,0,-1023,0,-429,0,42,-19,322,0,0,-1,-1,-1,-1,-1,1,-1,-1,-1,-1,0,36,8,-1023,0,36,0,0,0,0,0,0,0,298,1024,0,0,0,0,0,0,0,0,0,0,0,0,0,0,0,0,0,0,0,0,0,0,0,0,0,0,0,0,0,0,0,0,0,0,0,0,0,0,0,0,0,0,0,0,0,0,0,0,0,0,
2026-05-29,09:07:28.760,8.32,100,100,0,-0.137,5.99,25,0.997,100,0,0.017,100,100,1.00,-8.13,0.00,0,55.415800 12.873500,5,2026-05-29 09:07:28,0,0,-1023,0,-429,0,41,-19,321,0,0,-1,-1,-1,-1,-1,1,-1,-1,-1,-1,0,36,8,-1023,0,36,0,0,0,0,0,0,0,298,1024,0,0,0,0,0,0,0,0,0,0,0,0,0,0,0,0,0,0,0,0,0,0,0,0,0,0,0,0,0,0,0,0,0,0,0,0,0,0,0,0,0,0,0,0,0,0,0,0,0,0,
2026-05-29,09:07:28.880,8.32,100,100,0,-0.139,5.99,25,0.990,100,0,0.020,100,100,1.01,-8.13,0.00,0,55.415800 12.873500,5,2026-05-29 09:07:28,0,0,-1024,0,-429,0,44,-19,322,0,0,-1,-1,-1,-1,-1,1,-1,-1,-1,-1,0,36,8,-1024,0,36,0,0,0,0,0,0,0,298,1024,0,0,0,0,0,0,0,0,0,0,0,0,0,0,0,0,0,0,0,0,0,0,0,0,0,0,0,0,0,0,0,0,0,0,0,0,0,0,0,0,0,0,0,0,0,0,0,0,0,0,
2026-05-29,09:07:28.990,8.32,100,100,0,-0.139,6.00,25,0.990,100,0,0.020,100,100,1.01,-8.13,0.00,1,55.415800 12.873500,2,2026-05-29 09:07:29,0,0,-1024,0,-430,1,42,-19,322,0,0,-1,-1,-1,-1,-1,1,-1,-1,-1,-1,0,36,8,-1024,0,36,0,0,0,0,0,0,0,297,1024,0,0,0,0,0,0,0,0,0,0,0,0,0,0,0,0,0,0,0,0,0,0,0,0,0,0,0,0,0,0,0,0,0,0,0,0,0,0,0,0,0,0,0,0,0,0,0,0,0,0,
2026-05-29,09:07:29.110,8.32,100,100,0,-0.138,6.00,25,0.996,100,0,0.021,100,100,1.01,-8.13,0.00,1,55.415800 12.873500,2,2026-05-29 09:07:29,0,0,-1024,0,-430,0,43,-18,322,0,0,-1,-1,-1,-1,-1,1,-1,-1,-1,-1,0,36,8,-1024,0,36,0,0,0,0,0,0,0,297,1024,0,0,0,0,0,0,0,0,0,0,0,0,0,0,0,0,0,0,0,0,0,0,0,0,0,0,0,0,0,0,0,0,0,0,0,0,0,0,0,0,0,0,0,0,0,0,0,0,0,0,
2026-05-29,09:07:29.220,8.32,100,100,0,-0.139,5.97,25,0.989,100,0,0.023,100,100,1.00,-8.13,0.00,1,55.415800 12.873500,2,2026-05-29 09:07:29,0,0,-1024,0,-430,0,43,-19,322,0,0,-1,-1,-1,-1,-1,1,-1,-1,-1,-1,0,36,8,-1024,0,36,0,0,0,0,0,0,0,297,1024,0,0,0,0,0,0,0,0,0,0,0,0,0,0,0,0,0,0,0,0,0,0,0,0,0,0,0,0,0,0,0,0,0,0,0,0,0,0,0,0,0,0,0,0,0,0,0,0,0,0,
2026-05-29,09:07:29.340,8.32,100,100,0,-0.139,5.98,25,0.989,100,0,0.023,100,100,1.00,-8.13,0.00,1,55.415800 12.873500,2,2026-05-29 09:07:29,0,0,-1024,0,-430,0,42,-17,322,0,0,-1,-1,-1,-1,-1,1,-1,-1,-1,-1,0,36,8,-1024,0,36,0,0,0,0,0,0,0,297,1024,0,0,0,0,0,0,0,0,0,0,0,0,0,0,0,0,0,0,0,0,0,0,0,0,0,0,0,0,0,0,0,0,0,0,0,0,0,0,0,0,0,0,0,0,0,0,0,0,0,0,
2026-05-29,09:07:29.470,8.31,100,100,0,-0.139,5.98,25,0.997,100,0,0.024,100,100,1.00,-8.13,0.00,0,55.415800 12.873500,2,2026-05-29 09:07:29,0,0,-1024,0,-430,1,43,-19,321,0,0,-1,-1,-1,-1,-1,1,-1,-1,-1,-1,0,36,8,-1024,0,36,0,0,0,0,0,0,0,298,1024,0,0,0,0,0,0,0,0,0,0,0,0,0,0,0,0,0,0,0,0,0,0,0,0,0,0,0,0,0,0,0,0,0,0,0,0,0,0,0,0,0,0,0,0,0,0,0,0,0,0,
2026-05-29,09:07:29.580,8.32,100,99,0,-0.140,5.96,25,1.003,100,0,0.024,100,100,0.99,-8.13,0.00,0,55.415800 12.873500,2,2026-05-29 09:07:29,0,0,-1023,0,-429,0,43,-18,322,0,0,-1,-1,-1,-1,-1,1,-1,-1,-1,-1,0,36,8,-1023,0,36,0,0,0,0,0,0,0,298,1024,0,0,0,0,0,0,0,0,0,0,0,0,0,0,0,0,0,0,0,0,0,0,0,0,0,0,0,0,0,0,0,0,0,0,0,0,0,0,0,0,0,0,0,0,0,0,0,0,0,0,
2026-05-29,09:07:29.700,8.32,100,98,0,-0.138,5.97,25,1.003,99,0,0.022,100,100,0.99,-8.13,0.00,0,55.415800 12.873500,2,2026-05-29 09:07:29,0,0,-1024,0,-430,0,42,-5,322,0,0,-1,-1,-1,-1,-1,1,-1,-1,-1,-1,0,36,8,-1024,0,36,0,0,0,0,0,0,0,297,1024,0,0,0,0,0,0,0,0,0,0,0,0,0,0,0,0,0,0,0,0,0,0,0,0,0,0,0,0,0,0,0,0,0,0,0,0,0,0,0,0,0,0,0,0,0,0,0,0,0,0,
2026-05-29,09:07:29.840,8.32,100,99,0,-0.138,5.99,25,0.989,95,0,0.022,100,100,0.98,-8.13,0.00,0,55.415800 12.873500,2,2026-05-29 09:07:29,0,0,-1024,0,-429,1,42,-18,321,0,0,-1,-1,-1,-1,-1,1,-1,-1,-1,-1,0,36,8,-1024,0,36,0,0,0,0,0,0,0,298,1024,0,0,0,0,0,0,0,0,0,0,0,0,0,0,0,0,0,0,0,0,0,0,0,0,0,0,0,0,0,0,0,0,0,0,0,0,0,0,0,0,0,0,0,0,0,0,0,0,0,0,
2026-05-29,09:07:29.950,8.32,100,99,0,-0.137,5.99,25,0.992,92,0,0.023,100,100,0.98,-8.13,0.00,0,55.415800 12.873500,3,2026-05-29 09:07:29,0,0,-1024,0,-429,0,43,-18,322,0,0,-1,-1,-1,-1,-1,1,-1,-1,-1,-1,0,36,8,-1024,0,36,0,0,0,0,0,0,0,298,1024,0,0,0,0,0,0,0,0,0,0,0,0,0,0,0,0,0,0,0,0,0,0,0,0,0,0,0,0,0,0,0,0,0,0,0,0,0,0,0,0,0,0,0,0,0,0,0,0,0,0,
2026-05-29,09:07:30.060,8.32,100,99,0,-0.138,5.99,25,0.989,89,0,0.021,100,100,0.97,-8.13,0.00,0,55.415800 12.873500,3,2026-05-29 09:07:30,0,0,-1024,0,-429,1,42,-20,322,0,0,-1,-1,-1,-1,-1,1,-1,-1,-1,-1,0,36,8,-1024,0,36,0,0,0,0,0,0,0,298,1024,0,0,0,0,0,0,0,0,0,0,0,0,0,0,0,0,0,0,0,0,0,0,0,0,0,0,0,0,0,0,0,0,0,0,0,0,0,0,0,0,0,0,0,0,0,0,0,0,0,0,
2026-05-29,09:07:30.180,8.32,100,100,0,-0.138,5.99,25,0.989,87,0,0.021,100,100,0.97,-8.13,0.00,0,55.415800 12.873500,3,2026-05-29 09:07:30,0,0,-1024,0,-430,0,42,-18,322,0,0,-1,-1,-1,-1,-1,1,-1,-1,-1,-1,0,36,8,-1024,0,36,0,0,0,0,0,0,0,297,1024,0,0,0,0,0,0,0,0,0,0,0,0,0,0,0,0,0,0,0,0,0,0,0,0,0,0,0,0,0,0,0,0,0,0,0,0,0,0,0,0,0,0,0,0,0,0,0,0,0,0,
2026-05-29,09:07:30.300,8.32,100,98,0,-0.141,6.00,25,1.004,86,0,0.021,100,100,0.97,-8.13,0.00,0,55.415800 12.873500,3,2026-05-29 09:07:30,0,0,-1024,0,-430,1,42,-19,322,0,0,-1,-1,-1,-1,-1,1,-1,-1,-1,-1,0,36,8,-1024,0,36,0,0,0,0,0,0,0,297,1024,0,0,0,0,0,0,0,0,0,0,0,0,0,0,0,0,0,0,0,0,0,0,0,0,0,0,0,0,0,0,0,0,0,0,0,0,0,0,0,0,0,0,0,0,0,0,0,0,0,0,
2026-05-29,09:07:30.420,8.32,100,95,0,-0.140,6.00,25,0.994,85,0,0.021,100,100,0.95,-8.13,0.00,0,55.415800 12.873500,3,2026-05-29 09:07:30,0,0,-1024,0,-430,0,43,-22,322,0,0,-1,-1,-1,-1,-1,1,-1,-1,-1,-1,0,36,8,-1024,0,36,0,0,0,0,0,0,0,297,1024,0,0,0,0,0,0,0,0,0,0,0,0,0,0,0,0,0,0,0,0,0,0,0,0,0,0,0,0,0,0,0,0,0,0,0,0,0,0,0,0,0,0,0,0,0,0,0,0,0,0,
2026-05-29,09:07:30.530,8.32,100,97,0,-0.140,6.00,25,0.994,83,0,0.021,99,100,0.95,-8.13,0.00,0,55.415800 12.873500,3,2026-05-29 09:07:30,0,0,-1024,0,-429,0,42,-19,322,0,0,-1,-1,-1,-1,-1,1,-1,-1,-1,-1,0,36,8,-1024,0,36,0,0,0,0,0,0,0,298,1024,0,0,0,0,0,0,0,0,0,0,0,0,0,0,0,0,0,0,0,0,0,0,0,0,0,0,0,0,0,0,0,0,0,0,0,0,0,0,0,0,0,0,0,0,0,0,0,0,0,0,
2026-05-29,09:07:30.640,8.32,100,96,0,-0.140,6.00,25,0.990,82,0,0.021,99,100,0.96,-8.13,0.00,0,55.415800 12.873500,3,2026-05-29 09:07:30,0,0,-1024,0,-430,1,42,-19,321,0,0,-1,-1,-1,-1,-1,1,-1,-1,-1,-1,0,36,8,-1024,0,36,0,0,0,0,0,0,0,297,1024,0,0,0,0,0,0,0,0,0,0,0,0,0,0,0,0,0,0,0,0,0,0,0,0,0,0,0,0,0,0,0,0,0,0,0,0,0,0,0,0,0,0,0,0,0,0,0,0,0,0,
2026-05-29,09:07:30.760,8.32,100,97,0,-0.138,6.00,25,0.990,81,0,0.021,99,100,0.96,-8.13,0.00,0,55.415800 12.873500,3,2026-05-29 09:07:30,0,0,-1024,0,-429,0,42,-18,322,0,0,-1,-1,-1,-1,-1,1,-1,-1,-1,-1,0,36,8,-1024,0,36,0,0,0,0,0,0,0,298,1024,0,0,0,0,0,0,0,0,0,0,0,0,0,0,0,0,0,0,0,0,0,0,0,0,0,0,0,0,0,0,0,0,0,0,0,0,0,0,0,0,0,0,0,0,0,0,0,0,0,0,
2026-05-29,09:07:30.880,8.32,100,97,0,-0.139,6.00,25,0.990,82,0,0.021,99,100,0.96,-8.13,0.00,0,55.415800 12.873500,3,2026-05-29 09:07:30,0,0,-1024,0,-429,0,43,-19,322,0,0,-1,-1,-1,-1,-1,1,-1,-1,-1,-1,0,36,8,-1024,0,36,0,0,0,0,0,0,0,298,1024,0,0,0,0,0,0,0,0,0,0,0,0,0,0,0,0,0,0,0,0,0,0,0,0,0,0,0,0,0,0,0,0,0,0,0,0,0,0,0,0,0,0,0,0,0,0,0,0,0,0,
2026-05-29,09:07:31.010,8.32,100,97,0,-0.139,6.00,25,0.993,82,0,0.020,98,100,0.95,-8.13,0.00,0,55.415800 12.873500,4,2026-05-29 09:07:31,0,0,-1024,0,-430,0,43,-21,321,0,0,-1,-1,-1,-1,-1,1,-1,-1,-1,-1,0,36,8,-1024,0,36,0,0,0,0,0,0,0,297,1024,0,0,0,0,0,0,0,0,0,0,0,0,0,0,0,0,0,0,0,0,0,0,0,0,0,0,0,0,0,0,0,0,0,0,0,0,0,0,0,0,0,0,0,0,0,0,0,0,0,0,
2026-05-29,09:07:31.130,8.32,100,97,0,-0.138,6.00,25,0.992,82,0,0.022,98,100,0.97,-8.13,0.00,0,55.415800 12.873500,4,2026-05-29 09:07:31,0,0,-1024,0,-429,0,41,-19,321,0,0,-1,-1,-1,-1,-1,1,-1,-1,-1,-1,0,36,8,-1024,0,36,0,0,0,0,0,0,0,298,1024,0,0,0,0,0,0,0,0,0,0,0,0,0,0,0,0,0,0,0,0,0,0,0,0,0,0,0,0,0,0,0,0,0,0,0,0,0,0,0,0,0,0,0,0,0,0,0,0,0,0,
2026-05-29,09:07:31.250,8.32,100,96,0,-0.138,6.00,25,0.990,82,0,0.021,98,100,0.96,-8.13,0.00,0,55.415800 12.873500,4,2026-05-29 09:07:31,0,0,-1024,0,-430,0,43,-19,322,0,0,-1,-1,-1,-1,-1,1,-1,-1,-1,-1,0,36,8,-1024,0,36,0,0,0,0,0,0,0,297,1024,0,0,0,0,0,0,0,0,0,0,0,0,0,0,0,0,0,0,0,0,0,0,0,0,0,0,0,0,0,0,0,0,0,0,0,0,0,0,0,0,0,0,0,0,0,0,0,0,0,0,
2026-05-29,09:07:31.360,8.32,100,97,0,-0.138,6.00,25,0.990,82,0,0.021,99,100,0.96,-8.13,0.00,0,55.415800 12.873500,4,2026-05-29 09:07:31,0,0,-1023,0,-430,0,43,-21,322,0,0,-1,-1,-1,-1,-1,1,-1,-1,-1,-1,0,36,8,-1023,0,36,0,0,0,0,0,0,0,297,1024,0,0,0,0,0,0,0,0,0,0,0,0,0,0,0,0,0,0,0,0,0,0,0,0,0,0,0,0,0,0,0,0,0,0,0,0,0,0,0,0,0,0,0,0,0,0,0,0,0,0,
2026-05-29,09:07:31.500,8.32,100,94,0,-0.137,6.00,25,0.990,81,0,0.020,99,100,0.95,-8.13,0.00,0,55.415800 12.873500,4,2026-05-29 09:07:31,0,0,-1024,0,-430,1,42,-20,322,0,0,-1,-1,-1,-1,-1,1,-1,-1,-1,-1,0,36,8,-1024,0,36,0,0,0,0,0,0,0,298,1024,0,0,0,0,0,0,0,0,0,0,0,0,0,0,0,0,0,0,0,0,0,0,0,0,0,0,0,0,0,0,0,0,0,0,0,0,0,0,0,0,0,0,0,0,0,0,0,0,0,0,
2026-05-29,09:07:31.610,8.32,100,94,0,-0.138,6.00,25,0.986,81,0,0.021,99,100,0.96,-8.13,0.00,0,55.415800 12.873500,4,2026-05-29 09:07:31,0,0,-1023,0,-430,0,42,-19,322,0,0,-1,-1,-1,-1,-1,1,-1,-1,-1,-1,0,36,8,-1023,0,36,0,0,0,0,0,0,0,297,1024,0,0,0,0,0,0,0,0,0,0,0,0,0,0,0,0,0,0,0,0,0,0,0,0,0,0,0,0,0,0,0,0,0,0,0,0,0,0,0,0,0,0,0,0,0,0,0,0,0,0,
2026-05-29,09:07:31.720,8.32,100,93,0,-0.137,6.00,25,0.986,80,0,0.021,100,100,0.96,-8.13,0.00,0,55.415800 12.873500,4,2026-05-29 09:07:31,0,0,-1024,0,-430,0,42,-19,321,0,0,-1,-1,-1,-1,-1,1,-1,-1,-1,-1,0,36,8,-1024,0,36,0,0,0,0,0,0,0,297,1024,0,0,0,0,0,0,0,0,0,0,0,0,0,0,0,0,0,0,0,0,0,0,0,0,0,0,0,0,0,0,0,0,0,0,0,0,0,0,0,0,0,0,0,0,0,0,0,0,0,0,
2026-05-29,09:07:31.840,8.32,100,94,0,-0.137,6.00,25,0.998,81,0,0.019,100,100,0.96,-8.12,0.00,0,55.415800 12.873500,4,2026-05-29 09:07:31,0,0,-1024,0,-430,1,42,-18,322,0,0,-1,-1,-1,-1,-1,1,-1,-1,-1,-1,0,36,8,-1024,0,36,0,0,0,0,0,0,0,297,1024,0,0,0,0,0,0,0,0,0,0,0,0,0,0,0,0,0,0,0,0,0,0,0,0,0,0,0,0,0,0,0,0,0,0,0,0,0,0,0,0,0,0,0,0,0,0,0,0,0,0,
2026-05-29,09:07:31.960,8.32,100,93,0,-0.138,6.00,25,0.987,82,0,0.021,100,100,0.95,-8.12,0.00,0,55.415800 12.873500,5,2026-05-29 09:07:31,0,0,-1024,0,-429,1,42,-18,321,0,0,-1,-1,-1,-1,-1,1,-1,-1,-1,-1,0,36,8,-1024,0,36,0,0,0,0,0,0,0,298,1024,0,0,0,0,0,0,0,0,0,0,0,0,0,0,0,0,0,0,0,0,0,0,0,0,0,0,0,0,0,0,0,0,0,0,0,0,0,0,0,0,0,0,0,0,0,0,0,0,0,0,
2026-05-29,09:07:32.070,8.32,100,91,0,-0.138,6.00,25,0.999,84,0,0.021,100,100,0.95,-8.12,0.00,0,55.415800 12.873500,5,2026-05-29 09:07:32,0,0,-1024,0,-430,0,42,-19,322,0,0,-1,-1,-1,-1,-1,1,-1,-1,-1,-1,0,36,8,-1024,0,36,0,0,0,0,0,0,0,297,1024,0,0,0,0,0,0,0,0,0,0,0,0,0,0,0,0,0,0,0,0,0,0,0,0,0,0,0,0,0,0,0,0,0,0,0,0,0,0,0,0,0,0,0,0,0,0,0,0,0,0,
2026-05-29,09:07:32.190,8.32,100,93,0,-0.138,6.00,25,0.999,86,0,0.021,100,100,0.97,-8.12,0.00,0,55.415800 12.873500,5,2026-05-29 09:07:32,0,0,-1024,0,-429,0,43,-18,322,0,0,-1,-1,-1,-1,-1,1,-1,-1,-1,-1,0,36,8,-1024,0,36,0,0,0,0,0,0,0,297,1024,0,0,0,0,0,0,0,0,0,0,0,0,0,0,0,0,0,0,0,0,0,0,0,0,0,0,0,0,0,0,0,0,0,0,0,0,0,0,0,0,0,0,0,0,0,0,0,0,0,0,
2026-05-29,09:07:32.310,8.32,100,95,0,-0.139,6.00,25,0.998,86,0,0.023,100,100,0.96,-8.12,0.00,0,55.415800 12.873500,5,2026-05-29 09:07:32,0,0,-1023,0,-429,1,43,-18,322,0,0,-1,-1,-1,-1,-1,1,-1,-1,-1,-1,0,36,8,-1023,0,36,0,0,0,0,0,0,0,298,1024,0,0,0,0,0,0,0,0,0,0,0,0,0,0,0,0,0,0,0,0,0,0,0,0,0,0,0,0,0,0,0,0,0,0,0,0,0,0,0,0,0,0,0,0,0,0,0,0,0,0,
2026-05-29,09:07:32.420,8.32,100,96,0,-0.137,6.00,25,0.998,89,0,0.020,100,100,0.96,-8.12,0.00,0,55.415800 12.873500,5,2026-05-29 09:07:32,0,0,-1023,0,-429,3,43,-19,322,0,0,-1,-1,-1,-1,-1,1,-1,-1,-1,-1,0,36,8,-1023,0,36,0,0,0,0,0,0,0,298,1024,0,0,0,0,0,0,0,0,0,0,0,0,0,0,0,0,0,0,0,0,0,0,0,0,0,0,0,0,0,0,0,0,0,0,0,0,0,0,0,0,0,0,0,0,0,0,0,0,0,0,
2026-05-29,09:07:32.550,8.32,100,97,0,-0.137,6.00,25,0.990,90,0,0.020,100,100,0.96,-8.12,0.00,0,55.415800 12.873500,5,2026-05-29 09:07:32,0,0,-1024,0,-429,0,43,-18,321,0,0,-1,-1,-1,-1,-1,1,-1,-1,-1,-1,0,36,8,-1024,0,36,0,0,0,0,0,0,0,298,1024,0,0,0,0,0,0,0,0,0,0,0,0,0,0,0,0,0,0,0,0,0,0,0,0,0,0,0,0,0,0,0,0,0,0,0,0,0,0,0,0,0,0,0,0,0,0,0,0,0,0,
2026-05-29,09:07:32.680,8.32,100,99,0,-0.139,6.00,25,0.995,88,0,0.021,99,100,0.96,-8.12,0.00,0,55.415800 12.873500,5,2026-05-29 09:07:32,0,0,-1024,0,-429,0,43,-19,322,0,0,-1,-1,-1,-1,-1,1,-1,-1,-1,-1,0,36,8,-1024,0,36,0,0,0,0,0,0,0,298,1024,0,0,0,0,0,0,0,0,0,0,0,0,0,0,0,0,0,0,0,0,0,0,0,0,0,0,0,0,0,0,0,0,0,0,0,0,0,0,0,0,0,0,0,0,0,0,0,0,0,0,
2026-05-29,09:07:32.800,8.32,100,99,0,-0.138,6.00,25,0.994,87,0,0.021,99,100,0.95,-8.12,0.00,0,55.415800 12.873500,5,2026-05-29 09:07:32,0,0,-1023,0,-430,1,43,-18,321,0,0,-1,-1,-1,-1,-1,1,-1,-1,-1,-1,0,36,8,-1023,0,36,0,0,0,0,0,0,0,298,1024,0,0,0,0,0,0,0,0,0,0,0,0,0,0,0,0,0,0,0,0,0,0,0,0,0,0,0,0,0,0,0,0,0,0,0,0,0,0,0,0,0,0,0,0,0,0,0,0,0,0,
2026-05-29,09:07:32.910,8.32,100,99,0,-0.139,6.00,25,0.995,87,0,0.021,99,100,0.95,-8.12,0.00,0,55.415800 12.873500,5,2026-05-29 09:07:32,0,0,-1024,0,-429,0,43,-18,322,0,0,-1,-1,-1,-1,-1,1,-1,-1,-1,-1,0,36,8,-1024,0,36,0,0,0,0,0,0,0,298,1024,0,0,0,0,0,0,0,0,0,0,0,0,0,0,0,0,0,0,0,0,0,0,0,0,0,0,0,0,0,0,0,0,0,0,0,0,0,0,0,0,0,0,0,0,0,0,0,0,0,0,
2026-05-29,09:07:33.030,8.32,100,99,0,-0.139,6.00,25,0.995,88,0,0.020,99,100,0.95,-8.12,0.00,1,55.415800 12.873500,3,2026-05-29 09:07:33,0,0,-1024,0,-429,0,42,-18,322,0,0,-1,-1,-1,-1,-1,1,-1,-1,-1,-1,0,36,8,-1024,0,36,0,0,0,0,0,0,0,298,1024,0,0,0,0,0,0,0,0,0,0,0,0,0,0,0,0,0,0,0,0,0,0,0,0,0,0,0,0,0,0,0,0,0,0,0,0,0,0,0,0,0,0,0,0,0,0,0,0,0,0,
2026-05-29,09:07:33.150,8.31,100,100,0,-0.138,6.00,25,0.993,89,0,0.020,99,100,0.96,-8.12,0.00,1,55.415800 12.873500,3,2026-05-29 09:07:33,0,0,-1024,0,-430,0,42,-19,322,0,0,-1,-1,-1,-1,-1,1,-1,-1,-1,-1,0,36,8,-1024,0,36,0,0,0,0,0,0,0,298,1024,0,0,0,0,0,0,0,0,0,0,0,0,0,0,0,0,0,0,0,0,0,0,0,0,0,0,0,0,0,0,0,0,0,0,0,0,0,0,0,0,0,0,0,0,0,0,0,0,0,0,
2026-05-29,09:07:33.260,8.31,100,100,0,-0.139,6.00,25,0.993,90,0,0.021,99,100,0.96,-8.12,0.00,1,55.415800 12.873500,3,2026-05-29 09:07:33,0,0,-1024,0,-430,0,42,-18,322,0,0,-1,-1,-1,-1,-1,1,-1,-1,-1,-1,0,36,8,-1024,0,36,0,0,0,0,0,0,0,297,1024,0,0,0,0,0,0,0,0,0,0,0,0,0,0,0,0,0,0,0,0,0,0,0,0,0,0,0,0,0,0,0,0,0,0,0,0,0,0,0,0,0,0,0,0,0,0,0,0,0,0,
2026-05-29,09:07:33.380,8.32,100,100,0,-0.139,6.00,25,0.993,89,0,0.021,100,100,0.96,-8.12,0.00,1,55.415800 12.873500,3,2026-05-29 09:07:33,0,0,-1024,0,-430,0,43,-17,322,0,0,-1,-1,-1,-1,-1,1,-1,-1,-1,-1,0,36,8,-1024,0,36,0,0,0,0,0,0,0,297,1024,0,0,0,0,0,0,0,0,0,0,0,0,0,0,0,0,0,0,0,0,0,0,0,0,0,0,0,0,0,0,0,0,0,0,0,0,0,0,0,0,0,0,0,0,0,0,0,0,0,0,
2026-05-29,09:07:33.500,8.32,100,100,0,-0.139,5.97,25,0.989,89,0,0.021,100,100,0.95,-8.12,0.00,1,55.415800 12.873500,3,2026-05-29 09:07:33,0,0,-1024,0,-429,0,42,-19,321,0,0,-1,-1,-1,-1,-1,1,-1,-1,-1,-1,0,36,8,-1024,0,36,0,0,0,0,0,0,0,297,1024,0,0,0,0,0,0,0,0,0,0,0,0,0,0,0,0,0,0,0,0,0,0,0,0,0,0,0,0,0,0,0,0,0,0,0,0,0,0,0,0,0,0,0,0,0,0,0,0,0,0,
2026-05-29,09:07:33.620,8.32,100,100,0,-0.138,5.98,25,0.991,87,0,0.021,100,100,0.95,-8.12,0.00,1,55.415800 12.873500,3,2026-05-29 09:07:33,0,0,-1024,0,-429,1,42,-19,322,0,0,-1,-1,-1,-1,-1,1,-1,-1,-1,-1,0,36,8,-1024,0,36,0,0,0,0,0,0,0,298,1024,0,0,0,0,0,0,0,0,0,0,0,0,0,0,0,0,0,0,0,0,0,0,0,0,0,0,0,0,0,0,0,0,0,0,0,0,0,0,0,0,0,0,0,0,0,0,0,0,0,0,
2026-05-29,09:07:33.740,8.32,100,100,0,-0.138,5.99,25,0.991,88,0,0.021,100,100,0.95,-8.12,0.00,1,55.415800 12.873500,3,2026-05-29 09:07:33,0,0,-1024,0,-430,0,43,-19,322,0,0,-1,-1,-1,-1,-1,1,-1,-1,-1,-1,0,36,8,-1024,0,36,0,0,0,0,0,0,0,297,1024,0,0,0,0,0,0,0,0,0,0,0,0,0,0,0,0,0,0,0,0,0,0,0,0,0,0,0,0,0,0,0,0,0,0,0,0,0,0,0,0,0,0,0,0,0,0,0,0,0,0,
2026-05-29,09:07:33.850,8.32,100,100,0,-0.139,5.99,25,0.995,88,0,0.021,100,100,0.94,-8.12,0.00,1,55.415800 12.873500,3,2026-05-29 09:07:33,0,0,-1023,0,-429,0,43,-18,321,0,0,-1,-1,-1,-1,-1,1,-1,-1,-1,-1,0,36,8,-1023,0,36,0,0,0,0,0,0,0,298,1024,0,0,0,0,0,0,0,0,0,0,0,0,0,0,0,0,0,0,0,0,0,0,0,0,0,0,0,0,0,0,0,0,0,0,0,0,0,0,0,0,0,0,0,0,0,0,0,0,0,0,
2026-05-29,09:07:33.990,8.32,100,100,0,-0.140,5.99,25,0.995,88,0,0.023,100,100,0.96,-8.12,0.00,0,55.415800 12.873500,6,2026-05-29 09:07:34,0,0,-1024,0,-430,0,42,-20,322,0,0,-1,-1,-1,-1,-1,1,-1,-1,-1,-1,0,36,8,-1024,0,36,0,0,0,0,0,0,0,297,1024,0,0,0,0,0,0,0,0,0,0,0,0,0,0,0,0,0,0,0,0,0,0,0,0,0,0,0,0,0,0,0,0,0,0,0,0,0,0,0,0,0,0,0,0,0,0,0,0,0,0,
2026-05-29,09:07:34.110,8.32,100,100,0,-0.138,6.00,25,0.985,88,0,0.022,100,100,0.96,-8.11,0.00,0,55.415800 12.873500,6,2026-05-29 09:07:34,0,0,-1024,0,-430,0,43,-18,322,0,0,-1,-1,-1,-1,-1,1,-1,-1,-1,-1,0,36,8,-1024,0,36,0,0,0,0,0,0,0,297,1024,0,0,0,0,0,0,0,0,0,0,0,0,0,0,0,0,0,0,0,0,0,0,0,0,0,0,0,0,0,0,0,0,0,0,0,0,0,0,0,0,0,0,0,0,0,0,0,0,0,0,
2026-05-29,09:07:34.220,8.32,100,100,0,-0.138,6.00,25,0.985,88,0,0.022,100,100,0.96,-8.11,0.00,0,55.415800 12.873500,6,2026-05-29 09:07:34,0,0,-1024,0,-430,2,44,-18,322,0,0,-1,-1,-1,-1,-1,1,-1,-1,-1,-1,0,36,8,-1024,0,36,0,0,0,0,0,0,0,298,1024,0,0,0,0,0,0,0,0,0,0,0,0,0,0,0,0,0,0,0,0,0,0,0,0,0,0,0,0,0,0,0,0,0,0,0,0,0,0,0,0,0,0,0,0,0,0,0,0,0,0,
2026-05-29,09:07:34.340,8.32,100,100,0,-0.138,6.00,25,0.994,89,0,0.022,100,100,0.96,-8.11,0.00,0,55.415800 12.873500,6,2026-05-29 09:07:34,0,0,-1024,0,-430,1,43,-19,322,0,0,-1,-1,-1,-1,-1,1,-1,-1,-1,-1,0,36,8,-1024,0,36,0,0,0,0,0,0,0,297,1024,0,0,0,0,0,0,0,0,0,0,0,0,0,0,0,0,0,0,0,0,0,0,0,0,0,0,0,0,0,0,0,0,0,0,0,0,0,0,0,0,0,0,0,0,0,0,0,0,0,0,
2026-05-29,09:07:34.460,8.32,100,100,0,-0.138,6.00,25,0.993,89,0,0.021,100,100,0.95,-8.11,0.00,0,55.415800 12.873500,6,2026-05-29 09:07:34,0,0,-1024,0,-429,0,43,-19,322,0,0,-1,-1,-1,-1,-1,1,-1,-1,-1,-1,0,36,8,-1024,0,36,0,0,0,0,0,0,0,298,1024,0,0,0,0,0,0,0,0,0,0,0,0,0,0,0,0,0,0,0,0,0,0,0,0,0,0,0,0,0,0,0,0,0,0,0,0,0,0,0,0,0,0,0,0,0,0,0,0,0,0,
2026-05-29,09:07:34.580,8.32,100,100,0,-0.138,6.00,25,0.993,88,0,0.021,100,100,0.95,-8.11,0.00,0,55.415800 12.873500,6,2026-05-29 09:07:34,0,0,-1024,0,-429,0,43,-20,322,0,0,-1,-1,-1,-1,-1,1,-1,-1,-1,-1,0,36,8,-1024,0,36,0,0,0,0,0,0,0,298,1024,0,0,0,0,0,0,0,0,0,0,0,0,0,0,0,0,0,0,0,0,0,0,0,0,0,0,0,0,0,0,0,0,0,0,0,0,0,0,0,0,0,0,0,0,0,0,0,0,0,0,
2026-05-29,09:07:34.700,8.32,100,100,0,-0.138,6.00,25,0.992,88,0,0.021,100,100,0.94,-8.12,0.00,0,55.415800 12.873500,6,2026-05-29 09:07:34,0,0,-1024,0,-430,0,43,-19,322,0,0,-1,-1,-1,-1,-1,1,-1,-1,-1,-1,0,36,8,-1023,0,36,0,0,0,0,0,0,0,297,1024,0,0,0,0,0,0,0,0,0,0,0,0,0,0,0,0,0,0,0,0,0,0,0,0,0,0,0,0,0,0,0,0,0,0,0,0,0,0,0,0,0,0,0,0,0,0,0,0,0,0,
2026-05-29,09:07:34.810,8.32,100,100,0,-0.139,6.00,25,0.999,88,0,0.023,100,100,0.96,-8.12,0.00,0,55.415800 12.873500,6,2026-05-29 09:07:34,0,0,-1024,0,-430,0,43,-17,321,0,0,-1,-1,-1,-1,-1,1,-1,-1,-1,-1,0,36,8,-1024,0,36,0,0,0,0,0,0,0,297,1024,0,0,0,0,0,0,0,0,0,0,0,0,0,0,0,0,0,0,0,0,0,0,0,0,0,0,0,0,0,0,0,0,0,0,0,0,0,0,0,0,0,0,0,0,0,0,0,0,0,0,
2026-05-29,09:07:34.950,8.33,100,100,0,-0.139,6.00,25,0.991,88,0,0.022,100,100,0.96,-8.12,0.00,0,55.415800 12.873500,1,2026-05-29 09:07:34,0,0,-1024,0,-430,0,43,-18,322,0,0,-1,-1,-1,-1,-1,1,-1,-1,-1,-1,0,36,8,-1024,0,36,0,0,0,0,0,0,0,297,1024,0,0,0,0,0,0,0,0,0,0,0,0,0,0,0,0,0,0,0,0,0,0,0,0,0,0,0,0,0,0,0,0,0,0,0,0,0,0,0,0,0,0,0,0,0,0,0,0,0,0,
2026-05-29,09:07:35.070,8.33,100,100,0,-0.139,6.00,25,0.991,87,0,0.022,100,100,0.95,-8.12,0.00,0,55.415800 12.873500,1,2026-05-29 09:07:35,0,0,-1024,0,-430,0,43,-19,322,0,0,-1,-1,-1,-1,-1,1,-1,-1,-1,-1,0,36,8,-1024,0,36,0,0,0,0,0,0,0,297,1024,0,0,0,0,0,0,0,0,0,0,0,0,0,0,0,0,0,0,0,0,0,0,0,0,0,0,0,0,0,0,0,0,0,0,0,0,0,0,0,0,0,0,0,0,0,0,0,0,0,0,
2026-05-29,09:07:35.180,8.32,100,100,0,-0.138,6.00,25,0.993,88,0,0.022,100,100,0.96,-8.12,0.00,0,55.415800 12.873500,1,2026-05-29 09:07:35,0,0,-1024,0,-430,0,43,-4,322,0,0,-1,-1,-1,-1,-1,1,-1,-1,-1,-1,0,36,8,-1024,0,36,0,0,0,0,0,0,0,297,1024,0,0,0,0,0,0,0,0,0,0,0,0,0,0,0,0,0,0,0,0,0,0,0,0,0,0,0,0,0,0,0,0,0,0,0,0,0,0,0,0,0,0,0,0,0,0,0,0,0,0,
2026-05-29,09:07:35.300,8.33,100,100,0,-0.137,6.00,25,1.002,87,0,0.023,100,100,0.95,-8.12,0.00,0,55.415800 12.873500,1,2026-05-29 09:07:35,0,0,-1024,0,-429,0,43,-18,322,0,0,-1,-1,-1,-1,-1,1,-1,-1,-1,-1,0,36,8,-1024,0,36,0,0,0,0,0,0,0,297,1024,0,0,0,0,0,0,0,0,0,0,0,0,0,0,0,0,0,0,0,0,0,0,0,0,0,0,0,0,0,0,0,0,0,0,0,0,0,0,0,0,0,0,0,0,0,0,0,0,0,0,
2026-05-29,09:07:35.420,8.33,100,100,0,-0.137,6.00,25,1.002,87,0,0.023,100,100,0.95,-8.12,0.00,0,55.415800 12.873500,1,2026-05-29 09:07:35,0,0,-1023,0,-429,1,43,-20,322,0,0,-1,-1,-1,-1,-1,1,-1,-1,-1,-1,0,36,8,-1023,0,36,0,0,0,0,0,0,0,298,1024,0,0,0,0,0,0,0,0,0,0,0,0,0,0,0,0,0,0,0,0,0,0,0,0,0,0,0,0,0,0,0,0,0,0,0,0,0,0,0,0,0,0,0,0,0,0,0,0,0,0,
2026-05-29,09:07:35.530,8.32,100,100,0,-0.139,6.00,25,0.992,87,0,0.022,100,100,0.94,-8.12,0.00,0,55.415800 12.873500,1,2026-05-29 09:07:35,0,0,-1024,0,-429,0,42,-19,321,0,0,-1,-1,-1,-1,-1,1,-1,-1,-1,-1,0,36,8,-1024,0,36,0,0,0,0,0,0,0,298,1024,0,0,0,0,0,0,0,0,0,0,0,0,0,0,0,0,0,0,0,0,0,0,0,0,0,0,0,0,0,0,0,0,0,0,0,0,0,0,0,0,0,0,0,0,0,0,0,0,0,0,
2026-05-29,09:07:35.640,8.32,100,100,0,-0.137,6.00,25,0.999,87,0,0.019,100,100,0.93,-8.12,0.00,0,55.415800 12.873500,1,2026-05-29 09:07:35,0,0,-1023,0,-429,1,43,-19,322,0,0,-1,-1,-1,-1,-1,1,-1,-1,-1,-1,0,36,8,-1023,0,36,0,0,0,0,0,0,0,298,1024,0,0,0,0,0,0,0,0,0,0,0,0,0,0,0,0,0,0,0,0,0,0,0,0,0,0,0,0,0,0,0,0,0,0,0,0,0,0,0,0,0,0,0,0,0,0,0,0,0,0,
2026-05-29,09:07:35.750,8.32,100,100,0,-0.137,6.00,25,0.999,87,0,0.019,100,100,0.93,-8.12,0.00,0,55.415800 12.873500,1,2026-05-29 09:07:35,0,0,-1024,0,-430,0,43,-19,322,0,0,-1,-1,-1,-1,-1,1,-1,-1,-1,-1,0,36,8,-1024,0,36,0,0,0,0,0,0,0,297,1024,0,0,0,0,0,0,0,0,0,0,0,0,0,0,0,0,0,0,0,0,0,0,0,0,0,0,0,0,0,0,0,0,0,0,0,0,0,0,0,0,0,0,0,0,0,0,0,0,0,0,
2026-05-29,09:07:35.870,8.32,100,100,0,-0.138,6.00,25,0.990,88,0,0.019,100,100,0.94,-8.12,0.00,0,55.415800 12.873500,1,2026-05-29 09:07:35,0,0,-1024,0,-429,0,43,-18,322,0,0,-1,-1,-1,-1,-1,1,-1,-1,-1,-1,0,36,8,-1024,0,36,0,0,0,0,0,0,0,298,1024,0,0,0,0,0,0,0,0,0,0,0,0,0,0,0,0,0,0,0,0,0,0,0,0,0,0,0,0,0,0,0,0,0,0,0,0,0,0,0,0,0,0,0,0,0,0,0,0,0,0,
2026-05-29,09:07:36.000,8.32,100,100,0,-0.138,6.00,25,0.991,88,0,0.018,100,100,0.95,-8.12,0.00,0,55.415800 12.873500,1,2026-05-29 09:07:36,0,0,-1024,0,-430,0,44,-18,322,0,0,-1,-1,-1,-1,-1,1,-1,-1,-1,-1,0,36,8,-1024,0,36,0,0,0,0,0,0,0,298,1024,0,0,0,0,0,0,0,0,0,0,0,0,0,0,0,0,0,0,0,0,0,0,0,0,0,0,0,0,0,0,0,0,0,0,0,0,0,0,0,0,0,0,0,0,0,0,0,0,0,0,
2026-05-29,09:07:36.120,8.32,100,100,0,-0.139,5.95,25,0.991,88,0,0.020,100,100,0.95,-8.12,0.00,0,55.415800 12.873500,1,2026-05-29 09:07:36,0,0,-1024,0,-429,0,42,-18,322,0,0,-1,-1,-1,-1,-1,1,-1,-1,-1,-1,0,36,8,-1024,0,36,0,0,0,0,0,0,0,298,1024,0,0,0,0,0,0,0,0,0,0,0,0,0,0,0,0,0,0,0,0,0,0,0,0,0,0,0,0,0,0,0,0,0,0,0,0,0,0,0,0,0,0,0,0,0,0,0,0,0,0,
2026-05-29,09:07:36.240,8.32,100,100,0,-0.139,5.97,25,0.998,88,0,0.020,100,100,0.95,-8.12,0.00,0,55.415800 12.873500,1,2026-05-29 09:07:36,0,0,-1024,0,-430,0,42,-18,321,0,0,-1,-1,-1,-1,-1,1,-1,-1,-1,-1,0,36,8,-1024,0,36,0,0,0,0,0,0,0,297,1024,0,0,0,0,0,0,0,0,0,0,0,0,0,0,0,0,0,0,0,0,0,0,0,0,0,0,0,0,0,0,0,0,0,0,0,0,0,0,0,0,0,0,0,0,0,0,0,0,0,0,
2026-05-29,09:07:36.350,8.32,100,100,0,-0.138,5.97,25,0.993,88,0,0.020,100,100,0.96,-8.12,0.00,0,55.415800 12.873500,1,2026-05-29 09:07:36,0,0,-1023,0,-430,1,43,-20,322,0,0,-1,-1,-1,-1,-1,1,-1,-1,-1,-1,0,36,8,-1024,0,36,0,0,0,0,0,0,0,297,1024,0,0,0,0,0,0,0,0,0,0,0,0,0,0,0,0,0,0,0,0,0,0,0,0,0,0,0,0,0,0,0,0,0,0,0,0,0,0,0,0,0,0,0,0,0,0,0,0,0,0,
2026-05-29,09:07:36.470,8.32,100,100,0,-0.138,5.98,25,0.993,88,0,0.020,100,100,0.96,-8.12,0.00,0,55.415800 12.873500,1,2026-05-29 09:07:36,0,0,-1024,0,-430,0,44,-19,322,0,0,-1,-1,-1,-1,-1,1,-1,-1,-1,-1,0,36,8,-1024,0,36,0,0,0,0,0,0,0,297,1024,0,0,0,0,0,0,0,0,0,0,0,0,0,0,0,0,0,0,0,0,0,0,0,0,0,0,0,0,0,0,0,0,0,0,0,0,0,0,0,0,0,0,0,0,0,0,0,0,0,0,
2026-05-29,09:07:36.590,8.32,100,100,0,-0.138,5.99,25,0.993,88,0,0.020,100,100,0.96,-8.12,0.00,0,55.415800 12.873500,1,2026-05-29 09:07:36,0,0,-1024,0,-430,0,43,-19,322,0,0,-1,-1,-1,-1,-1,1,-1,-1,-1,-1,0,36,8,-1024,0,36,0,0,0,0,0,0,0,297,1024,0,0,0,0,0,0,0,0,0,0,0,0,0,0,0,0,0,0,0,0,0,0,0,0,0,0,0,0,0,0,0,0,0,0,0,0,0,0,0,0,0,0,0,0,0,0,0,0,0,0,
2026-05-29,09:07:36.710,8.32,100,100,0,-0.139,5.99,25,0.994,88,0,0.021,100,100,0.96,-8.12,0.00,0,55.415800 12.873500,1,2026-05-29 09:07:36,0,0,-1024,0,-429,0,43,-18,322,0,0,-1,-1,-1,-1,-1,1,-1,-1,-1,-1,0,36,8,-1024,0,36,0,0,0,0,0,0,0,298,1024,0,0,0,0,0,0,0,0,0,0,0,0,0,0,0,0,0,0,0,0,0,0,0,0,0,0,0,0,0,0,0,0,0,0,0,0,0,0,0,0,0,0,0,0,0,0,0,0,0,0,
2026-05-29,09:07:36.830,8.32,100,100,0,-0.138,5.99,25,0.994,90,0,0.022,100,100,0.95,-8.12,0.00,0,55.415800 12.873500,1,2026-05-29 09:07:36,0,0,-1024,0,-430,1,43,-19,322,0,0,-1,-1,-1,-1,-1,1,-1,-1,-1,-1,0,36,8,-1024,0,36,0,0,0,0,0,0,0,297,1024,0,0,0,0,0,0,0,0,0,0,0,0,0,0,0,0,0,0,0,0,0,0,0,0,0,0,0,0,0,0,0,0,0,0,0,0,0,0,0,0,0,0,0,0,0,0,0,0,0,0,
2026-05-29,09:07:36.960,8.32,100,100,0,-0.138,6.00,25,0.994,90,0,0.022,100,100,0.95,-8.12,0.00,0,55.415800 12.873500,4,2026-05-29 09:07:36,0,0,-1023,0,-430,0,43,-19,322,0,0,-1,-1,-1,-1,-1,1,-1,-1,-1,-1,0,36,8,-1023,0,36,0,0,0,0,0,0,0,297,1024,0,0,0,0,0,0,0,0,0,0,0,0,0,0,0,0,0,0,0,0,0,0,0,0,0,0,0,0,0,0,0,0,0,0,0,0,0,0,0,0,0,0,0,0,0,0,0,0,0,0,
2026-05-29,09:07:37.070,8.32,100,100,0,-0.138,6.00,25,0.993,90,0,0.021,100,100,0.95,-8.12,0.00,0,55.415800 12.873500,4,2026-05-29 09:07:37,0,0,-1024,0,-430,0,43,-18,322,0,0,-1,-1,-1,-1,-1,1,-1,-1,-1,-1,0,36,8,-1024,0,36,0,0,0,0,0,0,0,297,1024,0,0,0,0,0,0,0,0,0,0,0,0,0,0,0,0,0,0,0,0,0,0,0,0,0,0,0,0,0,0,0,0,0,0,0,0,0,0,0,0,0,0,0,0,0,0,0,0,0,0,
2026-05-29,09:07:37.180,8.32,100,100,0,-0.138,6.00,25,0.993,90,0,0.023,100,100,0.96,-8.12,0.00,0,55.415800 12.873500,4,2026-05-29 09:07:37,0,0,-1024,0,-430,0,42,-18,322,0,0,-1,-1,-1,-1,-1,1,-1,-1,-1,-1,0,36,8,-1024,0,36,0,0,0,0,0,0,0,297,1024,0,0,0,0,0,0,0,0,0,0,0,0,0,0,0,0,0,0,0,0,0,0,0,0,0,0,0,0,0,0,0,0,0,0,0,0,0,0,0,0,0,0,0,0,0,0,0,0,0,0,
2026-05-29,09:07:37.300,8.32,100,100,0,-0.137,5.97,25,0.993,90,0,0.023,100,100,0.96,-8.12,0.00,0,55.415800 12.873500,4,2026-05-29 09:07:37,0,0,-1023,0,-430,0,43,-18,322,0,0,-1,-1,-1,-1,-1,1,-1,-1,-1,-1,0,36,8,-1023,0,36,0,0,0,0,0,0,0,297,1024,0,0,0,0,0,0,0,0,0,0,0,0,0,0,0,0,0,0,0,0,0,0,0,0,0,0,0,0,0,0,0,0,0,0,0,0,0,0,0,0,0,0,0,0,0,0,0,0,0,0,
2026-05-29,09:07:37.420,8.32,100,100,0,-0.137,5.98,25,0.992,89,0,0.021,100,100,0.95,-8.12,0.00,0,55.415800 12.873500,4,2026-05-29 09:07:37,0,0,-1024,0,-429,0,42,-18,322,0,0,-1,-1,-1,-1,-1,1,-1,-1,-1,-1,0,36,8,-1024,0,36,0,0,0,0,0,0,0,298,1024,0,0,0,0,0,0,0,0,0,0,0,0,0,0,0,0,0,0,0,0,0,0,0,0,0,0,0,0,0,0,0,0,0,0,0,0,0,0,0,0,0,0,0,0,0,0,0,0,0,0,
2026-05-29,09:07:37.530,8.32,100,100,0,-0.138,5.98,25,0.995,88,0,0.022,100,100,0.95,-8.12,0.00,0,55.415800 12.873500,4,2026-05-29 09:07:37,0,0,-1024,0,-429,0,43,-18,321,0,0,-1,-1,-1,-1,-1,1,-1,-1,-1,-1,0,36,8,-1024,0,36,0,0,0,0,0,0,0,298,1024,0,0,0,0,0,0,0,0,0,0,0,0,0,0,0,0,0,0,0,0,0,0,0,0,0,0,0,0,0,0,0,0,0,0,0,0,0,0,0,0,0,0,0,0,0,0,0,0,0,0,
2026-05-29,09:07:37.660,8.32,100,100,0,-0.138,5.96,25,0.993,87,0,0.021,100,100,0.95,-8.12,0.00,0,55.415800 12.873500,4,2026-05-29 09:07:37,0,0,-1024,0,-429,1,42,-20,322,0,0,-1,-1,-1,-1,-1,1,-1,-1,-1,-1,0,36,8,-1024,0,36,0,0,0,0,0,0,0,298,1024,0,0,0,0,0,0,0,0,0,0,0,0,0,0,0,0,0,0,0,0,0,0,0,0,0,0,0,0,0,0,0,0,0,0,0,0,0,0,0,0,0,0,0,0,0,0,0,0,0,0,
2026-05-29,09:07:37.780,8.32,100,100,0,-0.138,5.98,25,0.993,87,0,0.021,100,100,0.95,-8.12,0.00,0,55.415800 12.873500,4,2026-05-29 09:07:37,0,0,-1023,0,-430,0,44,-20,322,0,0,-1,-1,-1,-1,-1,1,-1,-1,-1,-1,0,36,8,-1023,0,36,0,0,0,0,0,0,0,297,1024,0,0,0,0,0,0,0,0,0,0,0,0,0,0,0,0,0,0,0,0,0,0,0,0,0,0,0,0,0,0,0,0,0,0,0,0,0,0,0,0,0,0,0,0,0,0,0,0,0,0,
2026-05-29,09:07:37.890,8.32,100,100,0,-0.139,5.99,25,0.993,87,0,0.022,100,100,0.95,-8.12,0.00,0,55.415800 12.873500,4,2026-05-29 09:07:37,0,0,-1024,0,-430,0,42,-17,321,0,0,-1,-1,-1,-1,-1,1,-1,-1,-1,-1,0,36,8,-1024,0,36,0,0,0,0,0,0,0,297,1024,0,0,0,0,0,0,0,0,0,0,0,0,0,0,0,0,0,0,0,0,0,0,0,0,0,0,0,0,0,0,0,0,0,0,0,0,0,0,0,0,0,0,0,0,0,0,0,0,0,0,
2026-05-29,09:07:38.020,8.32,100,100,0,-0.137,5.96,25,0.999,86,0,0.021,100,100,0.97,-8.13,0.00,0,55.415800 12.873500,1,2026-05-29 09:07:38,0,0,-1024,0,-430,1,43,-20,322,0,0,-1,-1,-1,-1,-1,1,-1,-1,-1,-1,0,36,8,-1024,0,36,0,0,0,0,0,0,0,297,1024,0,0,0,0,0,0,0,0,0,0,0,0,0,0,0,0,0,0,0,0,0,0,0,0,0,0,0,0,0,0,0,0,0,0,0,0,0,0,0,0,0,0,0,0,0,0,0,0,0,0,
2026-05-29,09:07:38.140,8.32,100,100,0,-0.137,5.97,25,0.999,85,0,0.021,100,100,0.97,-8.13,0.00,0,55.415800 12.873500,1,2026-05-29 09:07:38,0,0,-1023,0,-429,1,43,-18,322,0,0,-1,-1,-1,-1,-1,1,-1,-1,-1,-1,0,36,8,-1023,0,36,0,0,0,0,0,0,0,298,1024,0,0,0,0,0,0,0,0,0,0,0,0,0,0,0,0,0,0,0,0,0,0,0,0,0,0,0,0,0,0,0,0,0,0,0,0,0,0,0,0,0,0,0,0,0,0,0,0,0,0,
2026-05-29,09:07:38.250,8.32,100,100,0,-0.139,5.96,25,0.983,85,0,0.021,100,100,0.97,-8.13,0.00,0,55.415800 12.873500,1,2026-05-29 09:07:38,0,0,-1024,0,-430,2,43,-18,322,0,0,-1,-1,-1,-1,-1,1,-1,-1,-1,-1,0,36,8,-1024,0,36,0,0,0,0,0,0,0,297,1024,0,0,0,0,0,0,0,0,0,0,0,0,0,0,0,0,0,0,0,0,0,0,0,0,0,0,0,0,0,0,0,0,0,0,0,0,0,0,0,0,0,0,0,0,0,0,0,0,0,0,
2026-05-29,09:07:38.370,8.32,100,100,0,-0.138,5.97,25,0.993,85,0,0.022,100,100,0.96,-8.13,0.00,0,55.415800 12.873500,1,2026-05-29 09:07:38,0,0,-1024,0,-429,0,43,-19,322,0,0,-1,-1,-1,-1,-1,1,-1,-1,-1,-1,0,36,8,-1024,0,36,0,0,0,0,0,0,0,298,1024,0,0,0,0,0,0,0,0,0,0,0,0,0,0,0,0,0,0,0,0,0,0,0,0,0,0,0,0,0,0,0,0,0,0,0,0,0,0,0,0,0,0,0,0,0,0,0,0,0,0,
2026-05-29,09:07:38.490,8.32,100,100,0,-0.139,5.98,25,0.993,86,0,0.022,100,100,0.96,-8.13,0.00,0,55.415800 12.873500,1,2026-05-29 09:07:38,0,0,-1024,0,-430,0,42,-21,322,0,0,-1,-1,-1,-1,-1,1,-1,-1,-1,-1,0,36,8,-1024,0,36,0,0,0,0,0,0,0,297,1024,0,0,0,0,0,0,0,0,0,0,0,0,0,0,0,0,0,0,0,0,0,0,0,0,0,0,0,0,0,0,0,0,0,0,0,0,0,0,0,0,0,0,0,0,0,0,0,0,0,0,
2026-05-29,09:07:38.610,8.32,100,100,0,-0.139,5.99,25,0.993,87,0,0.022,100,100,0.97,-8.12,0.00,0,55.415800 12.873500,1,2026-05-29 09:07:38,0,0,-1024,0,-429,0,43,-18,322,0,0,-1,-1,-1,-1,-1,1,-1,-1,-1,-1,0,36,8,-1024,0,36,0,0,0,0,0,0,0,298,1024,0,0,0,0,0,0,0,0,0,0,0,0,0,0,0,0,0,0,0,0,0,0,0,0,0,0,0,0,0,0,0,0,0,0,0,0,0,0,0,0,0,0,0,0,0,0,0,0,0,0,
2026-05-29,09:07:38.730,8.32,100,100,0,-0.138,5.96,25,0.996,87,0,0.022,100,100,0.96,-8.12,0.00,0,55.415800 12.873500,1,2026-05-29 09:07:38,0,0,-1024,0,-430,0,42,-20,322,0,0,-1,-1,-1,-1,-1,1,-1,-1,-1,-1,0,36,8,-1024,0,36,0,0,0,0,0,0,0,297,1024,0,0,0,0,0,0,0,0,0,0,0,0,0,0,0,0,0,0,0,0,0,0,0,0,0,0,0,0,0,0,0,0,0,0,0,0,0,0,0,0,0,0,0,0,0,0,0,0,0,0,
2026-05-29,09:07:38.850,8.32,100,100,0,-0.139,5.97,25,0.989,87,0,0.023,100,100,0.97,-8.12,0.00,0,55.415800 12.873500,1,2026-05-29 09:07:38,0,0,-1023,0,-430,2,43,-18,322,0,0,-1,-1,-1,-1,-1,1,-1,-1,-1,-1,0,36,8,-1023,0,36,0,0,0,0,0,0,0,297,1024,0,0,0,0,0,0,0,0,0,0,0,0,0,0,0,0,0,0,0,0,0,0,0,0,0,0,0,0,0,0,0,0,0,0,0,0,0,0,0,0,0,0,0,0,0,0,0,0,0,0,
2026-05-29,09:07:38.990,8.32,100,100,0,-0.139,5.99,25,0.989,90,0,0.022,100,100,0.97,-8.12,0.00,0,55.415800 12.873500,3,2026-05-29 09:07:39,0,0,-1024,0,-430,2,43,-18,322,0,0,-1,-1,-1,-1,-1,1,-1,-1,-1,-1,0,36,8,-1024,0,36,0,0,0,0,0,0,0,297,1024,0,0,0,0,0,0,0,0,0,0,0,0,0,0,0,0,0,0,0,0,0,0,0,0,0,0,0,0,0,0,0,0,0,0,0,0,0,0,0,0,0,0,0,0,0,0,0,0,0,0,
2026-05-29,09:07:39.100,8.32,100,100,0,-0.139,5.96,25,0.995,92,0,0.022,100,100,0.96,-8.12,0.00,0,55.415800 12.873500,3,2026-05-29 09:07:39,0,0,-1024,0,-430,3,43,-18,322,0,0,-1,-1,-1,-1,-1,1,-1,-1,-1,-1,0,36,8,-1024,0,36,0,0,0,0,0,0,0,297,1024,0,0,0,0,0,0,0,0,0,0,0,0,0,0,0,0,0,0,0,0,0,0,0,0,0,0,0,0,0,0,0,0,0,0,0,0,0,0,0,0,0,0,0,0,0,0,0,0,0,0,
2026-05-29,09:07:39.220,8.32,100,100,0,-0.138,5.97,25,0.986,92,0,0.022,100,100,0.95,-8.12,0.00,0,55.415800 12.873500,3,2026-05-29 09:07:39,0,0,-1024,0,-429,1,42,-18,322,0,0,-1,-1,-1,-1,-1,1,-1,-1,-1,-1,0,36,8,-1024,0,36,0,0,0,0,0,0,0,298,1024,0,0,0,0,0,0,0,0,0,0,0,0,0,0,0,0,0,0,0,0,0,0,0,0,0,0,0,0,0,0,0,0,0,0,0,0,0,0,0,0,0,0,0,0,0,0,0,0,0,0,
2026-05-29,09:07:39.330,8.32,100,100,0,-0.138,5.96,25,0.986,92,0,0.022,100,100,0.95,-8.12,0.00,0,55.415800 12.873500,3,2026-05-29 09:07:39,0,0,-1024,0,-430,1,42,-19,322,0,0,-1,-1,-1,-1,-1,1,-1,-1,-1,-1,0,36,8,-1024,0,36,0,0,0,0,0,0,0,297,1024,0,0,0,0,0,0,0,0,0,0,0,0,0,0,0,0,0,0,0,0,0,0,0,0,0,0,0,0,0,0,0,0,0,0,0,0,0,0,0,0,0,0,0,0,0,0,0,0,0,0,
2026-05-29,09:07:39.440,8.32,100,100,0,-0.138,5.97,25,0.995,90,0,0.021,100,100,0.96,-8.12,0.00,0,55.415800 12.873500,3,2026-05-29 09:07:39,0,0,-1023,0,-430,2,43,-17,321,0,0,-1,-1,-1,-1,-1,1,-1,-1,-1,-1,0,36,8,-1023,0,36,0,0,0,0,0,0,0,297,1024,0,0,0,0,0,0,0,0,0,0,0,0,0,0,0,0,0,0,0,0,0,0,0,0,0,0,0,0,0,0,0,0,0,0,0,0,0,0,0,0,0,0,0,0,0,0,0,0,0,0,
2026-05-29,09:07:39.560,8.32,100,100,0,-0.139,5.98,25,0.995,90,0,0.021,100,100,0.96,-8.12,0.00,0,55.415800 12.873500,3,2026-05-29 09:07:39,0,0,-1024,0,-430,1,42,-18,322,0,0,-1,-1,-1,-1,-1,1,-1,-1,-1,-1,0,36,8,-1024,0,36,0,0,0,0,0,0,0,297,1024,0,0,0,0,0,0,0,0,0,0,0,0,0,0,0,0,0,0,0,0,0,0,0,0,0,0,0,0,0,0,0,0,0,0,0,0,0,0,0,0,0,0,0,0,0,0,0,0,0,0,
2026-05-29,09:07:39.700,8.32,100,100,0,-0.138,5.99,25,0.992,92,0,0.021,100,100,0.96,-8.12,0.00,0,55.415800 12.873500,3,2026-05-29 09:07:39,0,0,-1024,0,-429,0,42,-21,322,0,0,-1,-1,-1,-1,-1,1,-1,-1,-1,-1,0,36,8,-1024,0,36,0,0,0,0,0,0,0,298,1024,0,0,0,0,0,0,0,0,0,0,0,0,0,0,0,0,0,0,0,0,0,0,0,0,0,0,0,0,0,0,0,0,0,0,0,0,0,0,0,0,0,0,0,0,0,0,0,0,0,0,
2026-05-29,09:07:39.820,8.32,100,100,0,-0.138,5.99,25,0.992,93,0,0.021,100,100,0.96,-8.12,0.00,0,55.415800 12.873500,3,2026-05-29 09:07:39,0,0,-1023,0,-430,0,43,-18,322,0,0,-1,-1,-1,-1,-1,1,-1,-1,-1,-1,0,36,8,-1023,0,36,0,0,0,0,0,0,0,297,1024,0,0,0,0,0,0,0,0,0,0,0,0,0,0,0,0,0,0,0,0,0,0,0,0,0,0,0,0,0,0,0,0,0,0,0,0,0,0,0,0,0,0,0,0,0,0,0,0,0,0,
2026-05-29,09:07:39.960,8.32,100,100,0,-0.138,5.97,25,0.995,93,0,0.021,100,100,0.95,-8.12,0.00,0,55.415800 12.873500,1,2026-05-29 09:07:40,0,0,-1024,0,-429,0,43,-18,322,0,0,-1,-1,-1,-1,-1,1,-1,-1,-1,-1,0,36,8,-1024,0,36,0,0,0,0,0,0,0,298,1024,0,0,0,0,0,0,0,0,0,0,0,0,0,0,0,0,0,0,0,0,0,0,0,0,0,0,0,0,0,0,0,0,0,0,0,0,0,0,0,0,0,0,0,0,0,0,0,0,0,0,
2026-05-29,09:07:40.080,8.32,100,100,0,-0.137,5.98,25,0.996,94,0,0.021,100,100,0.96,-8.12,0.00,0,55.415800 12.873500,1,2026-05-29 09:07:40,0,0,-1024,0,-430,1,43,-8,322,0,0,-1,-1,-1,-1,-1,1,-1,-1,-1,-1,0,36,8,-1024,0,36,0,0,0,0,0,0,0,298,1024,0,0,0,0,0,0,0,0,0,0,0,0,0,0,0,0,0,0,0,0,0,0,0,0,0,0,0,0,0,0,0,0,0,0,0,0,0,0,0,0,0,0,0,0,0,0,0,0,0,0,
2026-05-29,09:07:40.190,8.32,100,100,0,-0.138,5.99,25,0.993,94,0,0.021,100,100,0.96,-8.12,0.00,0,55.415800 12.873500,1,2026-05-29 09:07:40,0,0,-1024,0,-429,0,42,-19,322,0,0,-1,-1,-1,-1,-1,1,-1,-1,-1,-1,0,36,8,-1024,0,36,0,0,0,0,0,0,0,298,1024,0,0,0,0,0,0,0,0,0,0,0,0,0,0,0,0,0,0,0,0,0,0,0,0,0,0,0,0,0,0,0,0,0,0,0,0,0,0,0,0,0,0,0,0,0,0,0,0,0,0,
2026-05-29,09:07:40.310,8.32,100,100,0,-0.138,5.99,25,0.993,93,0,0.021,100,100,0.97,-8.12,0.00,0,55.415800 12.873500,1,2026-05-29 09:07:40,0,0,-1023,0,-429,1,43,-9,322,0,0,-1,-1,-1,-1,-1,1,-1,-1,-1,-1,0,36,8,-1023,0,36,0,0,0,0,0,0,0,298,1024,0,0,0,0,0,0,0,0,0,0,0,0,0,0,0,0,0,0,0,0,0,0,0,0,0,0,0,0,0,0,0,0,0,0,0,0,0,0,0,0,0,0,0,0,0,0,0,0,0,0,
2026-05-29,09:07:40.430,8.32,100,100,0,-0.137,5.99,25,0.996,93,0,0.020,100,100,0.96,-8.12,0.00,0,55.415800 12.873500,1,2026-05-29 09:07:40,0,0,-1023,0,-429,0,43,-18,322,0,0,-1,-1,-1,-1,-1,1,-1,-1,-1,-1,0,36,8,-1023,0,36,0,0,0,0,0,0,0,297,1024,0,0,0,0,0,0,0,0,0,0,0,0,0,0,0,0,0,0,0,0,0,0,0,0,0,0,0,0,0,0,0,0,0,0,0,0,0,0,0,0,0,0,0,0,0,0,0,0,0,0,
2026-05-29,09:07:40.540,8.32,100,100,0,-0.137,6.00,25,0.992,93,0,0.022,100,100,0.97,-8.12,0.00,0,55.415800 12.873500,1,2026-05-29 09:07:40,0,0,-1024,0,-430,0,43,-17,322,0,0,-1,-1,-1,-1,-1,1,-1,-1,-1,-1,0,36,8,-1024,0,36,0,0,0,0,0,0,0,297,1024,0,0,0,0,0,0,0,0,0,0,0,0,0,0,0,0,0,0,0,0,0,0,0,0,0,0,0,0,0,0,0,0,0,0,0,0,0,0,0,0,0,0,0,0,0,0,0,0,0,0,
2026-05-29,09:07:40.660,8.32,100,100,0,-0.137,6.00,25,0.992,92,0,0.022,100,100,0.97,-8.12,0.00,0,55.415800 12.873500,1,2026-05-29 09:07:40,0,0,-1024,0,-430,0,43,-14,322,0,0,-1,-1,-1,-1,-1,1,-1,-1,-1,-1,0,36,8,-1024,0,36,0,0,0,0,0,0,0,297,1024,0,0,0,0,0,0,0,0,0,0,0,0,0,0,0,0,0,0,0,0,0,0,0,0,0,0,0,0,0,0,0,0,0,0,0,0,0,0,0,0,0,0,0,0,0,0,0,0,0,0,
2026-05-29,09:07:40.780,8.32,100,100,0,-0.139,6.00,25,0.996,92,0,0.023,100,100,0.99,-8.12,0.00,0,55.415800 12.873500,1,2026-05-29 09:07:40,0,0,-1024,0,-430,2,42,-17,321,0,0,-1,-1,-1,-1,-1,1,-1,-1,-1,-1,0,36,8,-1024,0,36,0,0,0,0,0,0,0,297,1024,0,0,0,0,0,0,0,0,0,0,0,0,0,0,0,0,0,0,0,0,0,0,0,0,0,0,0,0,0,0,0,0,0,0,0,0,0,0,0,0,0,0,0,0,0,0,0,0,0,0,
2026-05-29,09:07:40.900,8.32,100,100,0,-0.138,6.00,25,0.997,92,0,0.020,100,100,0.98,-8.12,0.00,0,55.415800 12.873500,1,2026-05-29 09:07:40,0,0,-1024,0,-430,0,41,-20,322,0,0,-1,-1,-1,-1,-1,1,-1,-1,-1,-1,0,36,8,-1024,0,36,0,0,0,0,0,0,0,297,1024,0,0,0,0,0,0,0,0,0,0,0,0,0,0,0,0,0,0,0,0,0,0,0,0,0,0,0,0,0,0,0,0,0,0,0,0,0,0,0,0,0,0,0,0,0,0,0,0,0,0,
2026-05-29,09:07:41.020,8.32,100,100,0,-0.139,6.00,25,0.997,92,0,0.022,100,100,0.98,-8.12,0.00,0,55.415800 12.873500,3,2026-05-29 09:07:41,0,0,-1024,0,-430,0,43,-20,321,0,0,-1,-1,-1,-1,-1,1,-1,-1,-1,-1,0,36,8,-1024,0,36,0,0,0,0,0,0,0,297,1024,0,0,0,0,0,0,0,0,0,0,0,0,0,0,0,0,0,0,0,0,0,0,0,0,0,0,0,0,0,0,0,0,0,0,0,0,0,0,0,0,0,0,0,0,0,0,0,0,0,0,
2026-05-29,09:07:41.160,8.32,100,100,0,-0.139,6.00,25,0.992,90,0,0.022,100,100,0.97,-8.12,0.00,0,55.415800 12.873500,3,2026-05-29 09:07:41,0,0,-1024,0,-430,0,42,-18,322,0,0,-1,-1,-1,-1,-1,1,-1,-1,-1,-1,0,36,8,-1024,0,36,0,0,0,0,0,0,0,297,1024,0,0,0,0,0,0,0,0,0,0,0,0,0,0,0,0,0,0,0,0,0,0,0,0,0,0,0,0,0,0,0,0,0,0,0,0,0,0,0,0,0,0,0,0,0,0,0,0,0,0,
2026-05-29,09:07:41.270,8.32,100,100,0,-0.137,6.00,25,0.991,90,0,0.022,100,100,0.98,-8.12,0.00,0,55.415800 12.873500,3,2026-05-29 09:07:41,0,0,-1023,0,-429,2,43,-19,322,0,0,-1,-1,-1,-1,-1,1,-1,-1,-1,-1,0,36,8,-1023,0,36,0,0,0,0,0,0,0,298,1024,0,0,0,0,0,0,0,0,0,0,0,0,0,0,0,0,0,0,0,0,0,0,0,0,0,0,0,0,0,0,0,0,0,0,0,0,0,0,0,0,0,0,0,0,0,0,0,0,0,0,
2026-05-29,09:07:41.410,8.32,100,100,0,-0.140,6.00,25,0.990,90,0,0.022,100,100,0.97,-8.12,0.00,0,55.415800 12.873500,3,2026-05-29 09:07:41,0,0,-1023,0,-429,2,42,-18,322,0,0,-1,-1,-1,-1,-1,1,-1,-1,-1,-1,0,36,8,-1023,0,36,0,0,0,0,0,0,0,298,1024,0,0,0,0,0,0,0,0,0,0,0,0,0,0,0,0,0,0,0,0,0,0,0,0,0,0,0,0,0,0,0,0,0,0,0,0,0,0,0,0,0,0,0,0,0,0,0,0,0,0,
2026-05-29,09:07:41.530,8.32,100,100,0,-0.138,6.00,25,0.990,90,0,0.020,100,100,0.97,-8.12,0.00,0,55.415800 12.873500,3,2026-05-29 09:07:41,0,0,-1024,0,-430,2,43,-19,322,0,0,-1,-1,-1,-1,-1,1,-1,-1,-1,-1,0,36,8,-1024,0,36,0,0,0,0,0,0,0,297,1024,0,0,0,0,0,0,0,0,0,0,0,0,0,0,0,0,0,0,0,0,0,0,0,0,0,0,0,0,0,0,0,0,0,0,0,0,0,0,0,0,0,0,0,0,0,0,0,0,0,0,
2026-05-29,09:07:41.640,8.32,100,100,0,-0.138,6.00,25,0.996,89,0,0.020,100,100,0.96,-8.12,0.00,0,55.415800 12.873500,3,2026-05-29 09:07:41,0,0,-1024,0,-429,0,44,-9,322,0,0,-1,-1,-1,-1,-1,1,-1,-1,-1,-1,0,36,8,-1024,0,36,0,0,0,0,0,0,0,298,1024,0,0,0,0,0,0,0,0,0,0,0,0,0,0,0,0,0,0,0,0,0,0,0,0,0,0,0,0,0,0,0,0,0,0,0,0,0,0,0,0,0,0,0,0,0,0,0,0,0,0,
2026-05-29,09:07:41.750,8.32,100,100,0,-0.139,6.00,25,0.990,90,0,0.021,100,100,0.96,-8.12,0.00,0,55.415800 12.873500,3,2026-05-29 09:07:41,0,0,-1024,0,-430,1,43,-18,322,0,0,-1,-1,-1,-1,-1,1,-1,-1,-1,-1,0,36,8,-1024,0,36,0,0,0,0,0,0,0,298,1024,0,0,0,0,0,0,0,0,0,0,0,0,0,0,0,0,0,0,0,0,0,0,0,0,0,0,0,0,0,0,0,0,0,0,0,0,0,0,0,0,0,0,0,0,0,0,0,0,0,0,
2026-05-29,09:07:41.860,8.32,100,99,0,-0.139,5.97,25,0.990,90,0,0.021,100,100,0.96,-8.12,0.00,0,55.415800 12.873500,3,2026-05-29 09:07:41,0,0,-1024,0,-430,0,43,-19,321,0,0,-1,-1,-1,-1,-1,1,-1,-1,-1,-1,0,36,8,-1024,0,36,0,0,0,0,0,0,0,297,1024,0,0,0,0,0,0,0,0,0,0,0,0,0,0,0,0,0,0,0,0,0,0,0,0,0,0,0,0,0,0,0,0,0,0,0,0,0,0,0,0,0,0,0,0,0,0,0,0,0,0,
2026-05-29,09:07:42.000,8.31,100,100,0,-0.136,5.98,25,0.994,90,0,0.022,100,100,0.98,-8.12,0.00,0,55.415800 12.873500,4,2026-05-29 09:07:42,0,0,-1024,0,-429,0,43,-19,322,0,0,-1,-1,-1,-1,-1,1,-1,-1,-1,-1,0,36,8,-1024,0,36,0,0,0,0,0,0,0,298,1024,0,0,0,0,0,0,0,0,0,0,0,0,0,0,0,0,0,0,0,0,0,0,0,0,0,0,0,0,0,0,0,0,0,0,0,0,0,0,0,0,0,0,0,0,0,0,0,0,0,0,
2026-05-29,09:07:42.120,8.32,100,100,0,-0.140,5.99,25,0.987,91,0,0.022,100,100,0.97,-8.12,0.00,0,55.415800 12.873500,4,2026-05-29 09:07:42,0,0,-1024,0,-429,0,44,-19,322,0,0,-1,-1,-1,-1,-1,1,-1,-1,-1,-1,0,36,8,-1024,0,36,0,0,0,0,0,0,0,298,1024,0,0,0,0,0,0,0,0,0,0,0,0,0,0,0,0,0,0,0,0,0,0,0,0,0,0,0,0,0,0,0,0,0,0,0,0,0,0,0,0,0,0,0,0,0,0,0,0,0,0,
2026-05-29,09:07:42.230,8.31,100,100,0,-0.138,5.99,25,0.990,91,0,0.022,100,100,0.96,-8.12,0.00,0,55.415800 12.873500,4,2026-05-29 09:07:42,0,0,-1024,0,-429,0,43,-21,322,0,0,-1,-1,-1,-1,-1,1,-1,-1,-1,-1,0,36,8,-1024,0,36,0,0,0,0,0,0,0,298,1024,0,0,0,0,0,0,0,0,0,0,0,0,0,0,0,0,0,0,0,0,0,0,0,0,0,0,0,0,0,0,0,0,0,0,0,0,0,0,0,0,0,0,0,0,0,0,0,0,0,0,
2026-05-29,09:07:42.350,8.31,100,100,0,-0.138,5.99,25,0.990,92,0,0.022,100,100,0.96,-8.12,0.00,0,55.415800 12.873500,4,2026-05-29 09:07:42,0,0,-1024,0,-430,0,43,-17,322,0,0,-1,-1,-1,-1,-1,1,-1,-1,-1,-1,0,36,8,-1024,0,36,0,0,0,0,0,0,0,297,1024,0,0,0,0,0,0,0,0,0,0,0,0,0,0,0,0,0,0,0,0,0,0,0,0,0,0,0,0,0,0,0,0,0,0,0,0,0,0,0,0,0,0,0,0,0,0,0,0,0,0,
2026-05-29,09:07:42.470,8.32,100,100,0,-0.139,6.00,25,0.997,92,0,0.024,100,100,0.97,-8.12,0.00,1,55.415800 12.873500,4,2026-05-29 09:07:42,0,0,-1024,0,-430,0,43,-18,322,0,0,-1,-1,-1,-1,-1,1,-1,-1,-1,-1,0,36,8,-1024,0,36,0,0,0,0,0,0,0,297,1024,0,0,0,0,0,0,0,0,0,0,0,0,0,0,0,0,0,0,0,0,0,0,0,0,0,0,0,0,0,0,0,0,0,0,0,0,0,0,0,0,0,0,0,0,0,0,0,0,0,0,
2026-05-29,09:07:42.580,8.31,100,100,0,-0.140,6.00,25,0.993,93,0,0.023,100,100,0.97,-8.12,0.00,1,55.415800 12.873500,4,2026-05-29 09:07:42,0,0,-1024,0,-430,1,43,-19,322,0,0,-1,-1,-1,-1,-1,1,-1,-1,-1,-1,0,36,8,-1024,0,36,0,0,0,0,0,0,0,297,1024,0,0,0,0,0,0,0,0,0,0,0,0,0,0,0,0,0,0,0,0,0,0,0,0,0,0,0,0,0,0,0,0,0,0,0,0,0,0,0,0,0,0,0,0,0,0,0,0,0,0,
2026-05-29,09:07:42.700,8.31,100,100,0,-0.140,6.00,25,0.993,93,0,0.023,100,100,0.97,-8.12,0.00,1,55.415800 12.873500,4,2026-05-29 09:07:42,0,0,-1024,0,-430,0,42,-1,322,0,0,-1,-1,-1,-1,-1,1,-1,-1,-1,-1,0,36,8,-1024,0,36,0,0,0,0,0,0,0,297,1024,0,0,0,0,0,0,0,0,0,0,0,0,0,0,0,0,0,0,0,0,0,0,0,0,0,0,0,0,0,0,0,0,0,0,0,0,0,0,0,0,0,0,0,0,0,0,0,0,0,0,
2026-05-29,09:07:42.810,8.31,100,100,0,-0.139,6.00,25,1.001,92,0,0.024,100,100,0.98,-8.12,0.00,1,55.415800 12.873500,4,2026-05-29 09:07:42,0,0,-1024,0,-429,0,44,-16,321,0,0,-1,-1,-1,-1,-1,1,-1,-1,-1,-1,0,36,8,-1024,0,36,0,0,0,0,0,0,0,298,1024,0,0,0,0,0,0,0,0,0,0,0,0,0,0,0,0,0,0,0,0,0,0,0,0,0,0,0,0,0,0,0,0,0,0,0,0,0,0,0,0,0,0,0,0,0,0,0,0,0,0,
2026-05-29,09:07:42.930,8.31,100,100,0,-0.138,6.00,25,0.995,92,0,0.021,100,100,0.98,-8.12,0.00,1,55.415800 12.873500,6,2026-05-29 09:07:42,0,0,-1024,0,-429,1,44,-16,321,0,0,-1,-1,-1,-1,-1,1,-1,-1,-1,-1,0,36,8,-1024,0,36,0,0,0,0,0,0,0,298,1024,0,0,0,0,0,0,0,0,0,0,0,0,0,0,0,0,0,0,0,0,0,0,0,0,0,0,0,0,0,0,0,0,0,0,0,0,0,0,0,0,0,0,0,0,0,0,0,0,0,0,
2026-05-29,09:07:43.050,8.32,100,100,0,-0.138,6.00,25,0.995,92,0,0.021,100,100,0.98,-8.12,0.00,1,55.415800 12.873500,6,2026-05-29 09:07:43,0,0,-1024,0,-430,0,43,-17,322,0,0,-1,-1,-1,-1,-1,1,-1,-1,-1,-1,0,36,8,-1024,0,36,0,0,0,0,0,0,0,297,1024,0,0,0,0,0,0,0,0,0,0,0,0,0,0,0,0,0,0,0,0,0,0,0,0,0,0,0,0,0,0,0,0,0,0,0,0,0,0,0,0,0,0,0,0,0,0,0,0,0,0,
2026-05-29,09:07:43.170,8.31,100,100,0,-0.138,5.97,25,0.998,93,0,0.021,100,100,0.98,-8.12,0.00,1,55.415800 12.873500,6,2026-05-29 09:07:43,0,0,-1023,0,-430,0,43,-17,321,0,0,-1,-1,-1,-1,-1,1,-1,-1,-1,-1,0,36,8,-1023,0,36,0,0,0,0,0,0,0,297,1024,0,0,0,0,0,0,0,0,0,0,0,0,0,0,0,0,0,0,0,0,0,0,0,0,0,0,0,0,0,0,0,0,0,0,0,0,0,0,0,0,0,0,0,0,0,0,0,0,0,0,
2026-05-29,09:07:43.280,8.32,100,100,0,-0.137,5.98,25,0.996,93,0,0.022,100,100,0.99,-8.12,0.00,1,55.415800 12.873500,6,2026-05-29 09:07:43,0,0,-1024,0,-430,0,43,-17,322,0,0,-1,-1,-1,-1,-1,1,-1,-1,-1,-1,0,36,8,-1024,0,36,0,0,0,0,0,0,0,297,1024,0,0,0,0,0,0,0,0,0,0,0,0,0,0,0,0,0,0,0,0,0,0,0,0,0,0,0,0,0,0,0,0,0,0,0,0,0,0,0,0,0,0,0,0,0,0,0,0,0,0,
2026-05-29,09:07:43.400,8.31,100,100,0,-0.137,5.99,25,0.996,94,0,0.020,100,100,0.96,-8.12,0.00,0,55.415800 12.873500,6,2026-05-29 09:07:43,0,0,-1024,0,-430,0,43,-17,322,0,0,-1,-1,-1,-1,-1,1,-1,-1,-1,-1,0,36,8,-1024,0,36,0,0,0,0,0,0,0,297,1024,0,0,0,0,0,0,0,0,0,0,0,0,0,0,0,0,0,0,0,0,0,0,0,0,0,0,0,0,0,0,0,0,0,0,0,0,0,0,0,0,0,0,0,0,0,0,0,0,0,0,
2026-05-29,09:07:43.520,8.32,100,100,0,-0.137,5.97,25,0.998,94,0,0.020,100,100,0.96,-8.12,0.00,0,55.415800 12.873500,6,2026-05-29 09:07:43,0,0,-1024,0,-430,0,43,-17,322,0,0,-1,-1,-1,-1,-1,1,-1,-1,-1,-1,0,36,8,-1024,0,36,0,0,0,0,0,0,0,297,1024,0,0,0,0,0,0,0,0,0,0,0,0,0,0,0,0,0,0,0,0,0,0,0,0,0,0,0,0,0,0,0,0,0,0,0,0,0,0,0,0,0,0,0,0,0,0,0,0,0,0,
2026-05-29,09:07:43.630,8.32,100,100,0,-0.139,5.97,25,0.995,94,0,0.022,100,100,0.99,-8.12,0.00,0,55.415800 12.873500,6,2026-05-29 09:07:43,0,0,-1024,0,-430,1,44,-17,322,0,0,-1,-1,-1,-1,-1,1,-1,-1,-1,-1,0,36,8,-1024,0,36,0,0,0,0,0,0,0,297,1024,0,0,0,0,0,0,0,0,0,0,0,0,0,0,0,0,0,0,0,0,0,0,0,0,0,0,0,0,0,0,0,0,0,0,0,0,0,0,0,0,0,0,0,0,0,0,0,0,0,0,
